Accel_X,Accel_Y,Accel_Z,Gyro_X,Gyro_Y,Gyro_Z,Time
0.730859174963884,0.498306854941124,0.610131466533691,0.719296603690015,0.102670481731617,0.223899036202935,0
0.797037236230994,0.334880103516117,0.33150382369899,0.270287593408456,0.37654100017255,0.248074435513266,0.016
0.981436153299465,0.788171858604349,0.925602327053141,0.852298265572584,0.240105532990463,0.400783636895547,0.032
0.00847866725252622,0.146591639032124,0.740247196039837,0.231229261546709,0.17797163333103,0.191936017849081,0.048
0.934022352058532,0.890998572888003,0.83367061009655,0.998092874890332,0.604318862552593,0.864890561971486,0.064
0.814501999466517,0.318048301009531,0.0235771417934167,0.203972224872327,0.924990992465318,0.545345409014802,0.08
0.368781468245238,0.0801470571027654,0.492460160237005,0.0877056414820279,0.841363655310621,0.438594204887928,0.096
0.778086562676189,0.197222366603572,0.19895014474941,0.694756368654786,0.948583169160236,0.490403383487502,0.112
0.15137023543172,0.511591720229323,0.191406176150866,0.306077451565405,0.869172014677632,0.468646163645256,0.128
0.405545313737076,0.280981369827432,0.178993764900514,0.788321727953081,0.357192578282946,0.152413410226197,0.144
0.678608704055149,0.0660671380103409,0.883317138639868,0.534748182633193,0.253586794821084,0.540006057201647,0.16
0.806691112165775,0.628603758105536,0.640264811718219,0.835374646308443,0.163539081636314,0.185873970628186,0.176
0.213743709447843,0.23881354124714,0.623281907794844,0.0277153636588785,0.16795792003347,0.12616664196641,0.192
0.190345430477213,0.482492790584691,0.68365999002513,0.30560839287246,0.0862973506973204,0.206033220158031,0.208
0.414752612191021,0.225725421474015,0.356605084779051,0.332338663453,0.972366828774091,0.55875782551396,0.224
0.135763955447123,0.630689895411932,0.101931967185421,0.272194427654065,0.396409673032814,0.502047420306316,0.24
0.36325982465597,0.80266101674353,0.899876445992195,0.182041855934253,0.849425427669173,0.535972456356402,0.256
0.175881782619148,0.285298689596835,0.564459216530149,0.533936240256976,0.0117526387401962,0.701269478968195,0.272
0.91875649173847,0.574556075358243,0.958069456991072,0.692658208875117,0.293175625293143,0.202108451454001,0.288
0.733963614742597,0.801934946398859,0.217466008424643,0.910774297000557,0.79589938529225,0.713823180714305,0.304
0.963965072165194,0.0811259847611958,0.717424398817428,0.403487242060324,0.443490197100116,0.53184474545834,0.32
0.466939207201583,0.224929201424372,0.207320545088757,0.86945565121539,0.389719867603707,0.517698916397598,0.336
0.830112209380693,0.246167665859123,0.18841702497758,0.643968390280489,0.268034221560293,0.363949199029889,0.352
0.803888933849257,0.525341640342857,0.197402334869525,0.0422040833653587,0.229113823055377,0.92855407358001,0.368
0.752371919568486,0.351060746018383,0.247035271549844,0.977623704382759,0.127075088786917,0.711465057268451,0.384
0.453306358753554,0.225153383228494,0.335725173932246,0.558225516338468,0.384625227267857,0.879186295917675,0.4
0.35507348344896,0.91400799890363,0.0148000520193846,0.0941247810195659,0.603714929238272,0.319033511204505,0.416
0.250678373074222,0.971507872016406,0.638101726108698,0.0396885560349962,0.854350983460064,0.797621312571663,0.432
0.495696627843206,0.362748800089746,0.457333835351485,0.737071632561721,0.0151919419440164,0.501546577756485,0.448
0.983719480572698,0.33930598829738,0.744110632510441,0.880008451894118,0.615659624323,0.827311184627765,0.464
0.605391197615041,0.982152002136836,0.950445422605929,0.961429120244417,0.283250356281687,0.956883741468113,0.48
0.530811290029541,0.193365846613375,0.142687448216708,0.280151129566645,0.350263778880628,0.720040905639044,0.496
0.829441837942984,0.450281690937639,0.767703898842673,0.11328957215424,0.457072670887184,0.310626888423226,0.512
0.210551740616967,0.490843423710059,0.539643973422466,0.875282718265314,0.174382873066374,0.416966080264277,0.528
0.817840315300407,0.339590752958919,0.51233627763361,0.135480400040789,0.730170968251276,0.0534635742405724,0.544
0.575194499816989,0.229909016036786,0.207783438560648,0.632911291208698,0.147481823952618,0.442704662682477,0.56
0.422164816052766,0.530878731638087,0.267462389598198,0.7342958856765,0.492868529704,0.300061051536485,0.576
0.590519373307356,0.234202934159856,0.0473573771636945,0.433803528994819,0.704106290771546,0.252241410162463,0.592
0.372869197721181,0.333658879566491,0.782278174120385,0.934996974866652,0.288471121106688,0.78797691489729,0.608
0.958732811540839,0.8943217769631,0.226412219118245,0.295527670061706,0.823963200519871,0.50415990146683,0.624
0.0470520025007234,0.802762184891678,0.802515036369166,0.444341829291989,0.642019770425043,0.609888135461042,0.64
0.11209800840159,0.828109608921584,0.729234850655739,0.895965648885042,0.883488142607501,0.669456813688811,0.656
0.517431937902302,0.20774330893124,0.782714818465267,0.333309435888613,0.833542833365362,0.358803318326812,0.672
0.0571264957055292,0.514348411528186,0.729738813745211,0.172711010022104,0.0340276934399183,0.75976545123662,0.688
0.856380302624394,0.448308779227114,0.502308491761706,0.543937909505085,0.322859088056058,0.0926840314866106,0.704
0.612689779986956,0.206135878589039,0.288460066164794,0.577574884335252,0.192853996849599,0.955865572046638,0.72
0.559963234112245,0.326644379564,0.313300924643986,0.0710155102695416,0.523440010436852,0.344585728287367,0.736
0.0656087685861424,0.892871144230249,0.250181167654889,0.787846747256875,0.918583318747079,0.419497371763629,0.752
0.327907127507696,0.491764569550346,0.466814806547058,0.519250350589664,0.984253730466758,0.214937301889031,0.768
0.339155476227753,0.660081902172335,0.77982554267465,0.314459577995692,0.835364790075631,0.640305043399135,0.784
0.483668267669163,0.154792738582975,0.449496284922546,0.502646667993799,0.594211988097849,0.0260826917154331,0.8
0.411897951789999,0.258993380882489,0.356204238070387,0.299626173181967,0.580714181153833,0.272715421296581,0.816
0.40301254287839,0.777199770885335,0.74236399585352,0.432857364062812,0.348320476053831,0.65932340748228,0.832
0.835592496735158,0.501957927253168,0.523955581162748,0.352144551296003,0.685011223430044,0.280936769325919,0.848
0.229627732848899,0.972491743638012,0.654133898735027,0.893737720948334,0.2594348003308,0.527832017488953,0.864
0.729273874739207,0.657324685743958,0.495581645895709,0.809207009127121,0.148684651369517,0.706514690658855,0.88
0.803493105798449,0.622977195025912,0.770843758287547,0.677973646204628,0.638779919431655,0.901396992135828,0.896
0.864734957293759,0.0224805768752038,0.311697931114747,0.532204611017826,0.275680476422127,0.797459176884098,0.912
0.61228294857408,0.982962224556243,0.723325302941616,0.810220242186726,0.743327428098003,0.199335374757906,0.928
0.00691256830755804,0.189520464022501,0.259571499627488,0.302539926144166,0.0283554332175787,0.0332734165899292,0.944
0.930618934137559,0.126266081112026,0.415211479935845,0.747236459795457,0.0515073793432985,0.751660294714813,0.96
0.221284767455077,0.879184878120285,0.305067348346136,0.461318516520785,0.0047094118323171,0.837875201003557,0.976
0.575700555708684,0.0720618237819745,0.645087964546055,0.58744563093141,0.67487235777034,0.249969795229604,0.992
0.168315158826429,0.0608522917781715,0.967513045166772,0.651469499221581,0.945955048823344,0.737939732713815,1.008
0.0161159661208123,0.12084796225051,0.842294060676444,0.81196584367281,0.699368731437043,0.698311503854792,1.024
0.810611620024804,0.924684672551037,0.21442913630503,0.404277517104729,0.711159213515249,0.990818153520856,1.04
0.863554891749828,0.810448480072308,0.475856457615122,0.977718713521573,0.41630485062009,0.613752780436835,1.056
0.331249245714951,0.762387556594804,0.0119234616314211,0.697320868104892,0.160387228030865,0.324061992311862,1.072
0.806610952735536,0.610873097563796,0.524767501991819,0.404230275565514,0.401349771092607,0.276359362683998,1.088
0.922993420382982,0.641870590195396,0.91641953076989,0.11171694391691,0.919963226214763,0.521874431680876,1.104
0.643194204918943,0.636432959196381,0.605682474311544,0.711110711464812,0.556220975534138,0.815494599161906,1.12
0.503224912038965,0.748505667850957,0.776550826295324,0.452069380597589,0.35095649618663,0.644385523294522,1.136
0.738902860695345,0.78116364223872,0.0426787509335091,0.111835738037749,0.610359324480828,0.992731683456,1.152
0.864677247478761,0.590430972665026,0.46893174495446,0.0813585607185143,0.865173342568698,0.489200362938774,1.168
0.326597739150662,0.486337408887868,0.275816900164101,0.117390196648067,0.266751652467635,0.674756206968562,1.184
0.561311494125016,0.416960200211107,0.300089476543223,0.896295261431626,0.546281721731868,0.718361859775789,1.2
0.139332050244917,0.962115071661502,0.546171170789833,0.0744050653665123,0.654452982311048,0.0944409337106887,1.216
0.352396826473206,0.828090293321654,0.0169972220265791,0.0801320387596112,0.292204043335108,0.147613462099329,1.232
0.797207117529548,0.690321401062456,0.814021788886112,0.142070601133619,0.575432547939861,0.0937572642917047,1.248
0.507507940743679,0.0955399054404515,0.213412296530834,0.085309186071873,0.316158048393081,0.702122812350275,1.264
0.314952644558717,0.2674372709447,0.0199667843288239,0.692103330234608,0.930225126143561,0.237432763033313,1.28
0.920697627843853,0.653373213702869,0.177209181960503,0.723323085514106,0.254578665812171,0.176633830520791,1.296
0.737221990295356,0.366866724452787,0.258443041944123,0.82155057733345,0.576391575068109,0.808128767954236,1.312
0.0479919405085802,0.370707211828992,0.0525497973560852,0.560727024917654,0.977641269464503,0.0498097880162177,1.328
0.466313516475344,0.110892602011728,0.304683645050318,0.320583278207283,0.296220092160991,0.383795645014747,1.344
0.372088519986569,0.490824972647594,0.932949144544616,0.997343746144504,0.624237867110906,0.321491278608158,1.36
0.857633193208708,0.594110693147583,0.990307116270973,0.476571756917853,0.276368054604706,0.290951761762337,1.376
0.254148321925607,0.733826888597439,0.114536442669416,0.567995093448877,0.862386870313736,0.677772447998902,1.392
0.912056482754867,0.0209572478828061,0.205916636437193,0.789183291591938,0.784554638028286,0.226682548496255,1.408
0.375414566465318,0.125682383027023,0.342793840773405,0.948750610968597,0.718361905969069,0.0651088132772757,1.424
0.456589768302859,0.483035210052656,0.737715355095965,0.513059129262794,0.263159025958494,0.444703623041191,1.44
0.406122753236376,0.562812775797197,0.592643539526302,0.988020083176866,0.841089435780433,0.47387203029668,1.456
0.535985397059947,0.53552232227569,0.403898496470793,0.428841647762033,0.812611914424658,0.0474893735114434,1.472
0.443343022274659,0.942805432958355,0.209205149637493,0.0680347031103025,0.0810876788622916,0.0806537686351874,1.488
0.803799848747137,0.674297269851288,0.0988358052621732,0.186399337766268,0.139844398913021,0.270946143884061,1.504
0.183200713083278,0.199844884897393,0.906495292590118,0.839796905436172,0.332833260008663,0.693621769475788,1.52
0.826438371604226,0.994264168031829,0.226151971085192,0.597695289870059,0.0754614312737295,0.522247860226948,1.536
0.0608670819562114,0.768186571627679,0.228225817332656,0.937705287002402,0.149905129685303,0.735467467769734,1.552
0.526874259516459,0.630955745936005,0.620333185414829,0.847185737004015,0.485212281301959,0.0361215256004032,1.568
0.0851792284648284,0.886259732869829,0.85383974315037,0.892182345118323,0.465162332598969,0.817092167835709,1.584
0.739321133358178,0.284822132292553,0.247293274820297,0.150344668574143,0.708408114393317,0.366163461052986,1.6
0.200777339362834,0.39195069541048,0.181566822098617,0.899038112097936,0.56565863437824,0.790361609232568,1.616
0.234949490977247,0.680994676892216,0.320384213846058,0.548657038954492,0.917323788855729,0.976142474838138,1.632
0.624005885303985,0.869923486265147,0.051344837743256,0.448219819124007,0.203399897066114,0.338171037697098,1.648
0.696794556840844,0.495924636335753,0.84172077956229,0.998214829344092,0.432078831949553,0.789329797565481,1.664
0.468131954798483,0.517298628294506,0.817235742976351,0.528706584424519,0.900160365097162,0.745588579329344,1.68
0.475070675988135,0.00997957824416451,0.25903772597004,0.300094157568785,0.374010183687971,0.647181324981283,1.696
0.446695029102515,0.641817128836801,0.677329696602297,0.0142881628768231,0.764079289647074,0.449092942274933,1.712
0.734957041406105,0.630460915966553,0.11009313953524,0.641909241161736,0.437153414275318,0.09078705067063,1.728
0.238414773407558,0.208560549132063,0.14998924894176,0.221872322822866,0.603793087413026,0.589094068170599,1.744
0.196612474172787,0.195876063611654,0.056513132411708,0.045447132742569,0.875838568048757,0.657358372415041,1.76
0.563585326770918,0.223290570155344,0.357025152456741,0.0854643469070436,0.277564080717374,0.838575137336534,1.776
0.566809254382329,0.0957306961872528,0.784649958962032,0.278755164621064,0.838953006638264,0.664564651739348,1.792
0.992343041195957,0.0316444902760894,0.101612524862763,0.302869928325108,0.781430758383214,0.311520956549638,1.808
0.407395183201711,0.456652563808969,0.67683854923868,0.476039743810839,0.327828044015613,0.241295169592247,1.824
0.201110358545727,0.760341692721264,0.666805049905006,0.741709759803301,0.27597786524986,0.472810584430116,1.84
0.304399020993023,0.407269142248466,0.237358709259196,0.590888282798906,0.00593912560321574,0.24481199631135,1.856
0.392159913888683,0.110429620189747,0.897031672747247,0.0144709497289288,0.980746139978951,0.118720714387767,1.872
0.496707069252535,0.615365801489173,0.304591340340977,0.0449806228460756,0.822979103558391,0.66126742476304,1.888
0.297886197755972,0.684365211571291,0.0222430303680191,0.966087747531717,0.803428137359259,0.480517113037468,1.904
0.587090876068943,0.333027935824962,0.917259596595514,0.218387848149781,0.399817193565054,0.356362049645864,1.92
0.740285927117002,0.0428837992925015,0.22547881594741,0.335395170893764,0.579943235815771,0.361718435445721,1.936
0.278009236242264,0.519718916397245,0.103144613284751,0.666134666733442,0.410348341247738,0.567713475622551,1.952
0.29864318906817,0.757337392708945,0.101410636139714,0.749184667767371,0.874288450598289,0.882502435017949,1.968
0.625956313858093,0.870959693604808,0.738105030944903,0.421118340897576,0.967209921516605,0.913083860997668,1.984
0.763774258187993,0.136013376720874,0.833339785752244,0.853965254172286,0.697478195713488,0.401650011980392,2
0.371315721703092,0.64080093186568,0.770884432016499,0.6837178182495,0.424375307036482,0.787483900328051,2.016
0.0407528401226795,0.587045791334542,0.623540128689348,0.673567186436216,0.829481390596862,0.596987779580139,2.032
0.139388543797496,0.609516931417504,0.0891200235020513,0.846072172155159,0.178617021263977,0.402971985792555,2.048
0.189422313086002,0.959060194159606,0.0152393155002895,0.194481990874333,0.75791252289838,0.41991160080058,2.064
0.222251200202032,0.902700731910133,0.750444868248985,0.475666121263297,0.529189237980669,0.331198755760995,2.08
0.580073854927691,0.789933493104671,0.570692911096096,0.181914627788156,0.624318412140939,0.821944847982604,2.096
0.39928696509509,0.188681411552124,0.676875633385231,0.171727632081744,0.47632663874333,0.89553598374196,2.112
0.0540794726161601,0.996817761922666,0.860390254012397,0.0892676392942165,0.988533068488308,0.850950777133709,2.128
0.930954290412415,0.919507534262192,0.671073770914942,0.758748783506045,0.365488303200485,0.264108305722975,2.144
0.444485650403072,0.404006320727241,0.110053515210744,0.523437931221732,0.0814882228380893,0.495352861899859,2.16
0.0407830976397113,0.447863869805241,0.344487808465584,0.868923989651166,0.18662472253851,0.916159722929978,2.176
0.47139975067969,0.299968165176506,0.362651617521881,0.998144799508292,0.946051467396331,0.969628326253674,2.192
0.512184742988625,0.0599780529831861,0.496931818604823,0.108543089115833,0.560807356839657,0.677812093238009,2.208
0.805683224972649,0.460810388357563,0.430760359368193,0.0126752254357659,0.236443023121391,0.645650801923278,2.224
0.544071092107364,0.9635800719325,0.57358049211345,0.285900240450539,0.737756484931633,0.704326812888834,2.24
0.554797968916556,0.134298804352366,0.512098984024798,0.790314637225292,0.338450782938096,0.484589915019056,2.256
0.764203601656993,0.601433281395603,0.291058583837953,0.84229225637893,0.640080570675978,0.762421993393164,2.272
0.920598858405771,0.787914910709982,0.976009925702858,0.35713691676796,0.56925347722166,0.172790259014556,2.288
0.465839970113416,0.404144850788086,0.994077282291774,0.80640159503511,0.438926603181457,0.934041444015703,2.304
0.851976748683297,0.0272087956909403,0.499601153139717,0.438171938273392,0.758288124152332,0.390733660487065,2.32
0.248745364572626,0.202356362930372,0.207928980465843,0.638373759462391,0.212102051310767,0.220560216749252,2.336
0.550019640271534,0.737807206595251,0.699874088952572,0.545060108856159,0.730806631954753,0.381312481426977,2.352
0.132192672300528,0.394355796986361,0.0258718432871782,0.0565391022532693,0.191484688570617,0.662960353049235,2.368
0.713962948462638,0.651635494213691,0.989646765115137,0.0942719024462213,0.861106915809862,0.236097378110338,2.384
0.224010960876076,0.233680010259172,0.813700743215798,0.208181134247585,0.43346970009129,0.887225462309333,2.4
0.935709828229407,0.788509855424045,0.255271789049203,0.240206351117766,0.00346864731883489,0.0616960062839351,2.416
0.977376804581801,0.158996827838549,0.223472077179858,0.105190968504577,0.551659957858102,0.73577772456341,2.432
0.00192463252481234,0.631817002975087,0.31660789058804,0.288848610528907,0.967759644662351,0.881481048399757,2.448
0.588548721652928,0.00481718412151955,0.874776448321872,0.0305267468685584,0.536039224304314,0.109888259389198,2.464
0.199167500385159,0.00784650990252578,0.376284221687574,0.538683921417968,0.253510265299604,0.473763002084821,2.48
0.414388106314477,0.554902425859381,0.486448103342156,0.48749967017702,0.11332516935222,0.684203971057764,2.496
0.920014019827626,0.652314247472633,0.61304007810142,0.842816011903915,0.448993798933507,0.455273144268219,2.512
0.637157219608842,0.671342368098146,0.317330829169143,0.71672849039655,0.508299678031731,0.771764567093276,2.528
0.806340008207893,0.341892478854028,0.662436709541936,0.933505907543416,0.392770186839573,0.894992156124878,2.544
0.525551637815235,0.486527707673154,0.893934860753149,0.754469063276111,0.898999974601888,0.283878861298872,2.56
0.206184131209901,0.482924199227477,0.76910339305975,0.541522835954264,0.269505328230216,0.223200965184994,2.576
0.256526362218223,0.215645427770168,0.21341898032999,0.905330274440192,0.277703851428317,0.931335343785019,2.592
0.306827819287023,0.13928021328797,0.490144188473847,0.477854241891787,0.414764764509227,0.590273165453314,2.608
0.757213046752576,0.951667737002819,0.97826014100825,0.540324290819364,0.283053922859009,0.975417741530544,2.624
0.0357702579566994,0.918140497468061,0.724804167349894,0.0789050189056907,0.530743347840719,0.775791559732228,2.64
0.971742420746508,0.355656551846909,0.948509844649822,0.382347586774486,0.799583551620365,0.121800200106844,2.656
0.619707652000531,0.200584388684073,0.132137853297182,0.414145895989914,0.0145238224365294,0.842493501317738,2.672
0.468509430503195,0.899718907757137,0.988354355304393,0.465035090316447,0.44508845807237,0.277979269621571,2.688
0.201773788059657,0.216361850246338,0.21891813977165,0.323479385829608,0.462363990782187,0.705883562479924,2.704
0.305971818322316,0.972942905959449,0.334072373570204,0.0351162051184271,0.678161406575686,0.977417903459058,2.72
0.623688906376019,0.291034126013907,0.939981065084849,0.260373848031798,0.370075491889027,0.213795604230975,2.736
0.843467081061476,0.222556909194215,0.269719739791925,0.200338078646301,0.7057026411536,0.126361274492543,2.752
0.682892232086835,0.904780593367982,0.979460690280641,0.691352726481266,0.793766490424027,0.594474765702212,2.768
0.820006724571068,0.989367977656002,0.604008935428568,0.419760131425272,0.434313309294158,0.0349351667171991,2.784
0.82020356462062,0.583385164590591,0.954920228590519,0.907908292339583,0.81452483514265,0.897546388467962,2.8
0.711175734884852,0.837065094303676,0.693937701495069,0.218026795194933,0.720654242706968,0.0385655157977021,2.816
0.22746232157278,0.715480576608612,0.0658586977770526,0.377883724780581,0.66960268174708,0.00595039203091119,2.832
0.811407788697383,0.0930196382895147,0.500155399809348,0.774616146349754,0.190679128276137,0.721026957844758,2.848
0.631574247168284,0.355355078899034,0.183519650356773,0.37932003579314,0.886747234271347,0.116894908114707,2.864
0.0348733501383228,0.0157940420994466,0.485355178610109,0.358543656284233,0.279415357174045,0.310141525293346,2.88
0.205337351816962,0.689899320877214,0.89352119477578,0.987266288723862,0.947151702778467,0.789674091770373,2.896
0.44112926071053,0.214459466302829,0.995313811641477,0.781294988172609,0.269235577866769,0.877109477047102,2.912
0.92297010388179,0.859317934395323,0.618817343809496,0.647894166679769,0.726394226168784,0.555659574864175,2.928
0.741725737900687,0.0983853381944545,0.147448904626324,0.296429984712267,0.292312736059876,0.0383752012116441,2.944
0.0321447038808736,0.548344690630686,0.896875551123959,0.478952407959176,0.710581604558336,0.842820523073563,2.96
0.944985910175056,0.780842441211289,0.504954983371064,0.530949788929012,0.607051554904166,0.698959302056394,2.976
0.205608272870355,0.0824481603477919,0.727372527184255,0.98697085275428,0.441189427630335,0.0806583558222103,2.992
0.588013405941435,0.923459432742404,0.450672992629383,0.17137916353897,0.562382589563326,0.18841226858041,3.008
0.675594078359652,0.301355242291965,0.394042094878677,0.996872335610891,0.543432874469276,0.641237535104952,3.024
0.866324341515794,0.192255442333667,0.660635410559689,0.310087103896598,0.0695537834722718,0.136520217631865,3.04
0.33619362890195,0.754884564627729,0.511646325603185,0.893774683518499,0.549148374995565,0.462251625914536,3.056
0.496011855429115,0.4721325856529,0.625807853784353,0.80044357208962,0.957741622722581,0.462996823250982,3.072
0.440408860851187,0.394393584564293,0.188335419938319,0.427348761734457,0.337168223157892,0.292384582084098,3.088
0.784465397174363,0.070987194976011,0.874861242545523,0.746336091475841,0.695789256061543,0.135719436052937,3.104
0.785917419640628,0.358915124570009,0.79152296923227,0.991812508667853,0.2498180901241,0.885272865526864,3.12
0.215507659044369,0.455221027184916,0.05535716984265,0.968619275715824,0.601591422250181,0.604182086976449,3.136
0.898598060140758,0.476998709269157,0.240001026571739,0.518820707714266,0.395857151422825,0.716509040498041,3.152
0.723162549970939,0.166671949027366,0.926278079627752,0.674115646500979,0.121111632880836,0.94058754685887,3.168
0.590891595058257,0.533264339591504,0.712689550495721,0.0236484986968845,0.931954910835658,0.775441530483886,3.184
0.666982565321541,0.120436284946712,0.955666715913114,0.780424135906504,0.28531359056435,0.390709517572817,3.2
0.895338679588273,0.510029727342377,0.273686449876322,0.791291919183351,0.344244640681949,0.811691174165303,3.216
0.108242272875691,0.0362195750126526,0.78636942232782,0.966547572659517,0.572413306100376,0.724491779688511,3.232
0.602302144382229,0.624692403633722,0.296628048352424,0.23265798091762,0.646736806911806,0.647555452055306,3.248
0.931740513264294,0.143566939442389,0.266198391928132,0.923899015814686,0.560258576129828,0.447093162891047,3.264
0.311557659985979,0.64148408998952,0.205596794973442,0.136023080656361,0.202465357236612,0.0100513048214024,3.28
0.318738880526011,0.347934555634009,0.608089800233955,0.715676539431998,0.213596035998476,0.0230894432945565,3.296
0.716957607279745,0.360713843154705,0.16399489963349,0.978709858235034,0.845422094634803,0.316079998103559,3.312
0.582719704477877,0.623495418528052,0.135507217164578,0.806256284525328,0.938552451292747,0.430080886137884,3.328
0.265660446061516,0.757884689105346,0.490971271120659,0.280180875551161,0.768439687351589,0.953024582895649,3.344
0.44261372945668,0.110330961740832,0.913558956873698,0.993514009432918,0.941245398347371,0.459322314002602,3.36
0.918584320267618,0.721278004210344,0.104045928863152,0.10221476739268,0.0399967939321889,0.702364414797713,3.376
0.755674302137827,0.339844816713874,0.810770807864114,0.122339856153988,0.00953365746126933,0.26585076143102,3.392
0.352191884005075,0.146634808076386,0.994242689717167,0.267823807446807,0.717091008191788,0.155863455704962,3.408
0.563698969544578,0.480684293292967,0.477586570713716,0.856082650917742,0.308783950140188,0.67976136120123,3.424
0.573890219001147,0.611333444317456,0.60327447881245,0.844597184625902,0.636895648633874,0.0720510866601406,3.44
0.7973876147691,0.546216923392705,0.434566945218511,0.630258352096429,0.00718116547363856,0.850139226752768,3.456
0.20027481029129,0.745672200807948,0.998936733434724,0.73287954460788,0.427469472302329,0.768354027069679,3.472
0.79496399322223,0.284511257170203,0.0179466803839115,0.211202316756189,0.437227264735547,0.16084736152927,3.488
0.132848066303959,0.732034900149229,0.876701431620869,0.447341350358681,0.174139636664618,0.447239922219835,3.504
0.434452537820542,0.183367250760523,0.549109104858588,0.283347213013819,0.697844402894622,0.940646167011921,3.52
0.988008288812675,0.00617319633534663,0.601877209076559,0.886475674131308,0.370379110726816,0.884187407492496,3.536
0.542683846456512,0.484172147204977,0.327516978403599,0.40541907520927,0.223545759110262,0.515588083800583,3.552
0.562129860423793,0.958390618274817,0.00736886524959512,0.976936120835235,0.617338151620973,0.945112902281081,3.568
0.448344179253364,0.00934475937686852,0.98570112044793,0.177366678264645,0.893543108670642,0.851633937416113,3.584
0.701299604878769,0.388741959219726,0.456257589527748,0.988839463894411,0.166573883185373,0.395312825493859,3.6
0.401191271181926,0.00661532730054104,0.138130479410927,0.273549391978766,0.681621657928933,0.921234280816303,3.616
0.747747769251336,0.0614565805399998,0.631168876496349,0.533609446781089,0.0065811473296592,0.678563218066445,3.632
0.450640520317612,0.639929402373289,0.99607188606647,0.0302568915375735,0.985528946695876,0.925135069362829,3.648
0.779610222102399,0.546772852047607,0.478414325112017,0.453521006904395,0.466986563609249,0.954660904709064,3.664
0.302686761230917,0.977394957074956,0.378538850759223,0.885090605564532,0.900267568625075,0.988630072511942,3.68
0.341512140069999,0.775668403929169,0.628048314237314,0.994865690547776,0.259314658660537,0.384077061972442,3.696
0.217395452521803,0.790631699850585,0.627838018689972,0.0160576485296712,0.480744233227952,0.43947756678783,3.712
0.907867544331735,0.892511934526224,0.442024027779322,0.301585602044729,0.0674804228551477,0.119349176360429,3.728
0.403325708569945,0.479091161930392,0.482585676531043,0.230703215012702,0.101616771419492,0.579206011734738,3.744
0.732500473307735,0.0625104619820424,0.126677212554953,0.55778064747733,0.489449104121601,0.847748695450083,3.76
0.173151208420382,0.273836859637742,0.155647792935034,0.513160579326405,0.454308402241773,0.145759698576873,3.776
0.362023827501619,0.494432253896942,0.0515397050020585,0.0280143288449088,0.470235616461905,0.248186981150667,3.792
0.390662904429715,0.561000208665501,0.084185382644431,0.509532443743892,0.485030205327894,0.265817545039907,3.808
0.475698710381663,0.556102990514948,0.318640211113726,0.617588578822099,0.938261197347,0.073664437214979,3.824
0.651393276547915,0.340977691956139,0.0718395877400374,0.326538539733235,0.0946531756702771,0.337883463378065,3.84
0.540509570080182,0.758065720360933,0.909176896345577,0.321633125146011,0.479145660360675,0.727784057798177,3.856
0.142183070032428,0.175744541193846,0.828055944654335,0.866407221066003,0.822722567629086,0.549847052212542,3.872
0.0577172700145976,0.158797172009207,0.820675921011394,0.00939970294176051,0.797098175067429,0.257469196366304,3.888
0.406743176774539,0.485739100252625,0.604824300770245,0.264013072239354,0.563984563933916,0.531216245754915,3.904
0.31331975326297,0.470927555888651,0.124600361184869,0.506880824805246,0.287107948668715,0.624115971874266,3.92
0.827921293145452,0.423923807507914,0.216313818149691,0.189024705270566,0.467510599876606,0.981076345325728,3.936
0.43418268557112,0.894962000472348,0.670930840842679,0.304606606358791,0.471861194203529,0.727714596292636,3.952
0.525230402222584,0.0203817568998402,0.999568380276148,0.244926996596173,0.0517371507502441,0.422496392708029,3.968
0.691989723690504,0.453839903238116,0.092997998470506,0.502864953264695,0.74339497714959,0.953932211749632,3.984
0.200333042290113,0.552936480859061,0.986204991443048,0.801961616222382,0.435592087795585,0.396797526560501,4
0.646118280809289,0.369542576490629,0.90540793434886,0.313133509077431,0.52827665949739,0.415520632762568,4.016
0.392645139806006,0.310391174308274,0.40334015835215,0.694684115158696,0.419978915025381,0.362977099112558,4.032
0.413256503215235,0.399512569570535,0.37292075167088,0.522796190408492,0.0736989103895769,0.406812731381662,4.048
0.90690669991215,0.288096183719214,0.580811184418567,0.0232493211809865,0.220807710765746,0.939612438416604,4.064
0.167888514920593,0.955468332789169,0.511570999969348,0.876001994683236,0.645185464536131,0.145224618144407,4.08
0.397403793577857,0.635858192738026,0.295374396153964,0.433310307029681,0.109508986935523,0.96988656399175,4.096
0.35885011109977,0.919716452000534,0.212939388096398,0.107449650519142,0.455990830570288,0.893058992084604,4.112
0.965356456324742,0.823410202640998,0.356344578266249,0.707533154822633,0.154955426388301,0.158875031201237,4.128
0.112804447233173,0.20200265673229,0.144558501977538,0.561420669640457,0.611755796890701,0.529359098161272,4.144
0.830584931528505,0.526592164241603,0.444982050878902,0.611892961808432,0.896436896473549,0.221077367860603,4.16
0.840130531253352,0.454117482147885,0.192769824154146,0.673496206756204,0.487956412229449,0.481810393495557,4.176
0.687700570745589,0.139334857040957,0.686002797463413,0.591103618709438,0.186958873682255,0.743788263450517,4.192
0.248790250908434,0.439775729277454,0.232264666951771,0.294613192303167,0.640408638177802,0.033082831914691,4.208
0.791960905160737,0.305095794599558,0.280045321353761,0.0576187091984796,0.183701908491974,0.380051209224834,4.224
0.0456701742093293,0.89786538850173,0.384183807882726,0.908663605161399,0.396291476870861,0.214937530283829,4.24
0.74515254922466,0.566507359963885,0.833601275215938,0.693088266804745,0.594190939472286,0.519558686652654,4.256
0.663842987686324,0.0292197162704348,0.95858905898357,0.541913774744763,0.415727661438833,0.351315927225879,4.272
0.987883511964328,0.544482468800752,0.118013473341589,0.4022837673092,0.0719407275769651,0.885188290094845,4.288
0.999860395290127,0.495093262963976,0.420398520115597,0.13367536801207,0.835159121513908,0.402855563728168,4.304
0.798183821374499,0.0209976332812082,0.691459280276367,0.71767785141021,0.567251239431166,0.29252942409686,4.32
0.00673892339135251,0.744391045632298,0.97577212836225,0.66882947073725,0.188743302455601,0.747233970555434,4.336
0.877871869422714,0.911923700500145,0.688431798718463,0.30696129150524,0.427754371727646,0.710414647310508,4.352
0.716747262657019,0.311873667383094,0.617831359429626,0.539702695492591,0.0196429846958105,0.0223467570606221,4.368
0.838575524582954,0.595693113538216,0.514314798600231,0.398229416875452,0.325433732996338,0.787534366217544,4.384
0.343365310624367,0.0186537161828887,0.0508446153523719,0.855133630678936,0.227426060294304,0.0217641605012867,4.4
0.71194159297648,0.172812091209404,0.540694122107395,0.091282960009984,0.39962510645684,0.398072040366405,4.416
0.472312578529556,0.276704190181531,0.314090077844476,0.861206839476746,0.278543519802013,0.587612946140012,4.432
0.0172906643152488,0.69282096153019,0.666619218961192,0.870381045542941,0.54168298671105,0.0695050001436663,4.448
0.91398737100047,0.433074995939212,0.568294219062047,0.858398344215808,0.321882648744376,0.346265166312406,4.464
0.475463115451971,0.972966718764317,0.0209339014277142,0.76350442488238,0.630414780729361,0.131944860727704,4.48
0.911190247106261,0.589031339700503,0.942404158461554,0.685054578894573,0.143513640300023,0.753207389856087,4.496
0.401111307062117,0.162155481032633,0.485017103480407,0.849995715540078,0.720450370703807,0.199986538631478,4.512
0.223055613731346,0.255807639498006,0.288561789130481,0.270137929723828,0.521576274944473,0.197598210278859,4.528
0.347492377573441,0.038691460388888,0.557016365985487,0.354081634839539,0.0665630279461462,0.265451339599631,4.544
0.765440425978686,0.142477113979481,0.618647371060152,0.383736788232025,0.00806894724327789,0.018299861911642,4.56
0.104787696301852,0.358724661681022,0.258216728075771,0.0249448117132738,0.122188054748034,0.925718350700382,4.576
0.31912597947115,0.95789894334994,0.0913116741830662,0.260142134417405,0.370186094854551,0.157438240019835,4.592
0.466278560645733,0.394943966191862,0.487767753447906,0.990012319107643,0.00778325664830781,0.149139353771915,4.608
0.408452620305807,0.548063050682597,0.958869946353314,0.288550652623575,0.43552379605472,0.300402705325529,4.624
0.650859484112086,0.552868256774612,0.731857917727085,0.0564540170441472,0.0267687036926506,0.766915317993281,4.64
0.515644427558357,0.857073332891517,0.121395400946167,0.149879144640423,0.549841721986251,0.940720771801856,4.656
0.385084742856936,0.902069082487187,0.413939651023982,0.833623831571014,0.086029686081917,0.605452641320895,4.672
0.527725154600018,0.304560973550693,0.112599802373082,0.402973482734164,0.336838411526179,0.190536005489407,4.688
0.37330568495615,0.042073253957856,0.019563345464952,0.649632004315568,0.463866032356549,0.441235742035963,4.704
0.548908087067591,0.391784727585944,0.577187954399643,0.743936447189515,0.511218229317413,0.665043565355303,4.72
0.578063209607143,0.610512676596571,0.528566813921007,0.985614630646308,0.914799310693845,0.806894532741022,4.736
0.64701039260782,0.63770646287001,0.163360934934933,0.38468866913988,0.758183916996786,0.705805378280215,4.752
0.0945506539608285,0.794172506642667,0.0990260129386539,0.440192783243727,0.327938021618268,0.681308032664633,4.768
0.963042589006035,0.704366149698688,0.726585354587741,0.640191271634544,0.00566516162753417,0.960086765911522,4.784
0.406904768247069,0.842285264822298,0.930468863465953,0.700282441825122,0.136683208684235,0.406854734911444,4.8
0.868291463266222,0.254417941602933,0.688832433423345,0.912619282211163,0.288463732170075,0.795340624175498,4.816
0.179394051924823,0.661284981623917,0.350032025756563,0.0722822903881638,0.657195810381423,0.308934949721991,4.832
0.025786256493509,0.919583962420433,0.70766489917189,0.0916852740398014,0.741779965057907,0.94328353801259,4.848
0.944494379177691,0.617049042777312,0.632316833331941,0.878401948010622,0.022812579287623,0.753330410316619,4.864
0.935806045684805,0.474695425988221,0.481800551656949,0.181268244726697,0.772850390574162,0.156729729600012,4.88
0.126259965849593,0.432578011492588,0.165401782265217,0.372369028781156,0.242848221388762,0.235646592748775,4.896
0.866106599355336,0.0146905321611479,0.250881568376851,0.88724981532506,0.967591571303827,0.1682186738298,4.912
0.38174017796437,0.113838719264723,0.138666181604749,0.175035315378133,0.938516299982619,0.722042771803252,4.928
0.107712735042376,0.961629945557615,0.155694356676036,0.715191237664682,0.430060662653725,0.649967709002015,4.944
0.00833942512299923,0.368261071963078,0.795531599014997,0.608174523473041,0.84538826858536,0.554705145709031,4.96
0.944441674007838,0.0367552853095227,0.2739837420989,0.277579353194619,0.0729828658741806,0.236413679049186,4.976
0.705371397853672,0.839103905580911,0.604851464844353,0.0880235665895136,0.0829134258000938,0.41251871008958,4.992
0.173341325804381,0.795908498232428,0.176294068406627,0.913253651718036,0.926398741831926,0.411395041210827,5.008
0.745373995733441,0.648439062509402,0.572238956024552,0.0170705092329645,0.19148719164879,0.186116096955784,5.024
0.0223129897609183,0.10097335857407,0.979647904205327,0.94501350994538,0.65211306357639,0.743282513916022,5.04
0.672496512868811,0.949614389296735,0.0800342274272956,0.228878565261746,0.27415484241881,0.72715862960425,5.056
0.345790366099674,0.525581825609601,0.308563609205647,0.926801395354256,0.950195599121678,0.803972362651741,5.072
0.00835589768407163,0.909517232639705,0.655427735307703,0.151417721999348,0.598359694886303,0.382940190030693,5.088
0.673137329121814,0.027351504133681,0.782803618097221,0.469502014982113,0.198373519261138,0.75586962610653,5.104
0.557050590773496,0.382881934485713,0.00886403283687076,0.630567279295129,0.300326334081146,0.897990987311153,5.12
0.451323697839953,0.81127846264059,0.191100249230109,0.428327897490502,0.788133727099595,0.517924675022552,5.136
0.825168205961184,0.435148305139722,0.890052406771599,0.307591980379825,0.391128981733065,0.100059855872725,5.152
0.802675159932908,0.654181676089063,0.633343881582242,0.222656248111361,0.435590941601731,0.877339719319757,5.168
0.755160274715609,0.339480849473071,0.775956371647243,0.743314457171451,0.912726790657884,0.0205581388816358,5.184
0.968244327713216,0.42543788732807,0.160318582397454,0.590104142908476,0.659530349623494,0.0382097180104374,5.2
0.934018382458583,0.935885748503481,0.241570850798747,0.860145787522033,0.694082121709761,0.292445252582799,5.216
0.740952056955097,0.189404620218699,0.999887792202433,0.579362626339253,0.00240109169612124,0.751977581726924,5.232
0.88413035117848,0.420081253628543,0.0684407557681573,0.833151415932299,0.441780975840895,0.79019388516435,5.248
0.973436198238962,0.894394559884665,0.0601863775604545,0.260599763122114,0.380705012930514,0.320882080904603,5.264
0.171750546776322,0.756797160372718,0.679422439577725,0.986941010282413,0.823493501405566,0.874724478792648,5.28
0.363526599438418,0.473571794263461,0.251494566792217,0.982597648014883,0.828782195130734,0.323783911722813,5.296
0.384081097743181,0.87620685103078,0.489688461665447,0.109638601565135,0.0806447467736863,0.317460897057892,5.312
0.784261313296689,0.239930537613964,0.988221793924049,0.257665986278243,0.235881711046837,0.242434135387213,5.328
0.799298806681509,0.363220924604696,0.763114182110203,0.732599700920259,0.927446761028541,0.899562789372615,5.344
0.931131793046687,0.279267441757581,0.0287399792601593,0.387252552920856,0.00910026729999303,0.671839732751468,5.36
0.721928930896726,0.135051839398802,0.455622140854425,0.568769605699237,0.876547508555663,0.456706401859581,5.376
0.10702944522762,0.223008569728575,0.562374495865863,0.457657692043315,0.037084704698699,0.29609187292245,5.392
0.471549581089913,0.178488898730681,0.375343912453227,0.740980798447412,0.195274679428264,0.533943617069279,5.408
0.867394542570715,0.48815683629058,0.0947944499224821,0.871757358351954,0.335548449854622,0.483188360623455,5.424
0.831871502332875,0.297646135679684,0.202201767191378,0.611433158425824,0.770747544004946,0.825481929083843,5.44
0.876977165720111,0.648276129783813,0.612919722491111,0.801447802842214,0.0109017336244388,0.981783143054781,5.456
0.706441230349462,0.725458320755637,0.728755131479327,0.179038118280626,0.483667494115863,0.637142610098592,5.472
0.543507323867561,0.601239359880178,0.105862700276975,0.991844790450828,0.875869427956989,0.796407763901951,5.488
0.1397480145584,0.746676685665616,0.204680402270093,0.870252312374477,0.58641461670475,0.600242132797049,5.504
0.456168911233507,0.778913570128953,0.849290787455051,0.428341843832493,0.568714689799295,0.884286415132304,5.52
0.683868870944381,0.384830763305633,0.152311568128202,0.891800919214784,0.578520634347982,0.614086680259951,5.536
0.610230176736917,0.0652613879024604,0.862890713096275,0.741531270681335,0.981495653160005,0.637061410076787,5.552
0.478835150312316,0.853940564489519,0.955473137102166,0.048115387781724,0.11356775018482,0.314537650384586,5.568
0.670408665168299,0.245852008564216,0.970352642263452,0.730414202135108,0.511745220337985,0.0514217498721571,5.584
0.169431537432803,0.361043927517117,0.0149986403893497,0.0631587710121982,0.655919513595437,0.673672051688408,5.6
0.500536810871762,0.397161076260565,0.169149443894363,0.514578816405156,0.728972487290576,0.0776303786437764,5.616
0.298414028472139,0.69685763296982,0.557803225132374,0.306915301632607,0.506161692457963,0.00504709742472997,5.632
0.527504250928168,0.239820509346875,0.298861753248342,0.818566012009855,0.352914599544082,0.573970735705544,5.648
0.894892503635536,0.0295490793286607,0.629416793410344,0.643288028982083,0.0528324263800493,0.638523244014717,5.664
0.830257246072247,0.0028655425186348,0.695179878195163,0.425355434147068,0.117741179687822,0.759814497445573,5.68
0.566767321340687,0.691665581008038,0.763559056036078,0.424998802886766,0.56691028707696,0.701104201751003,5.696
0.629381015002997,0.663735438182536,0.539726946554029,0.427000034958539,0.626892200665771,0.796652796484848,5.712
0.68247253488373,0.821504404282725,0.784207444478934,0.925393403843516,0.265140744657744,0.275934443512587,5.728
0.444865409893114,0.54744774066605,0.874799965805585,0.0765900974697333,0.577448404609027,0.606620869779813,5.744
0.50018329974835,0.558120046102924,0.882580367686925,0.863159309634366,0.67804297945271,0.468245604425082,5.76
0.0679555208524151,0.212868935097349,0.797306987386568,0.198914877170254,0.490175748105966,0.566271227441617,5.776
0.119908047432529,0.337618423225668,0.501790379988188,0.618912263109011,0.126919345853934,0.723249538389118,5.792
0.32411344836449,0.249802222807155,0.467979848564354,0.354794833603885,0.674854155865626,0.878965609269058,5.808
0.712425851167231,0.239623017096361,0.227883223296431,0.360888210971225,0.866174966206062,0.100899442098997,5.824
0.00225444439980915,0.315224274181593,0.784393537459542,0.802759423778225,0.48604441305965,0.928570850192727,5.84
0.844827944014408,0.128341857675274,0.77574407243447,0.963744511733498,0.292322461093734,0.512416594062645,5.856
0.864270059640816,0.995904731401163,0.424665931810003,0.44935315146345,0.792562918151639,0.130638426612466,5.872
0.309870824350605,0.507943907385427,0.795983155054957,0.301764075572981,0.671819142729055,0.202787286488154,5.888
0.975099671117166,0.0992852906572677,0.0298827615793382,0.793815887157702,0.995883658463175,0.629532848586169,5.904
0.644510121674382,0.00998872081370328,0.703230055772233,0.243333297980525,0.366356673247432,0.108438829269585,5.92
0.413777121406767,0.883694479962383,0.418965790953976,0.178256541268025,0.419239280879264,0.672294435044811,5.936
0.828811293168774,0.380427874489638,0.328474037072379,0.79258417845035,0.645547464482744,0.325333980644409,5.952
0.914828428731363,0.155957927156252,0.0303074486927227,0.727815646127189,0.713277608043426,0.7247805229071,5.968
0.00674680377186554,0.336909031063506,0.512812314280599,0.437496496617103,0.494695476208393,0.27512178617682,5.984
0.285462509863568,0.0702912873993263,0.808605312318907,0.364251412368086,0.353367311860261,0.515463576178415,6
0.986791889300644,0.634787044862432,0.449166335681548,0.302804177708308,0.606982937425784,0.292776519423531,6.016
0.737550999786966,0.0132394949520371,0.456496041246843,0.821238132738132,0.431399897607815,0.373382856795489,6.032
0.546780098206103,0.817223978533611,0.386724979215464,0.588384674403512,0.857305041803146,0.212382272504208,6.048
0.162986884267617,0.397281898850526,0.252062741885706,0.271434495602357,0.785134693315692,0.475574714089942,6.064
0.250684599864013,0.383774585464834,0.857769250406571,0.100334626948966,0.30358111694941,0.696349996987393,6.08
0.998665639213457,0.729913272936634,0.199437392620126,0.257091966741787,0.702639944491842,0.266380134154333,6.096
0.60543910177589,0.00511108339704835,0.252780975685982,0.638552854703955,0.100610765354307,0.641658202076004,6.112
0.415657563980312,0.823924664101017,0.852943738698177,0.550770662956939,0.214230679787027,0.523686226255895,6.128
0.923189290891706,0.296277399002024,0.424257381054245,0.1862206305706,0.0855732555200067,0.363489781334699,6.144
0.672189555518808,0.563768234437541,0.843530379523019,0.532655920414273,0.520780036786415,0.237784905702224,6.16
0.00270002152260351,0.595332252851738,0.392031641467534,0.449350019258994,0.513190768994468,0.733508493650856,6.176
0.150372141585434,0.0691962301612751,0.836082327302586,0.649462584529401,0.724903690517603,0.618136719545291,6.192
0.0244657422672372,0.0940836897460621,0.77067962363269,0.0174068297329308,0.203087881647129,0.652271674253343,6.208
0.468633300390209,0.21636599893171,0.871393599649159,0.839465054473886,0.505443591076541,0.0514923356098832,6.224
0.434851548455156,0.00938628974324152,0.375037534396326,0.508443730470477,0.876302143302483,0.692839587487582,6.24
0.76611153566574,0.774849986160426,0.683861699845809,0.381772394732587,0.645841270320285,0.991225756766602,6.256
0.827313499293553,0.718231545518922,0.00159838860622252,0.362378470634617,0.162210805863825,0.181901238491823,6.272
0.225838353099107,0.172785768121041,0.853998177207438,0.069949487286616,0.679687162009861,0.827006915133956,6.288
0.242493458527945,0.910321563034373,0.837177153876195,0.906896822331873,0.226671823961619,0.53278697587995,6.304
0.489243510770084,0.489308545969549,0.260200731549939,0.595466444026389,0.446783441190071,0.487691609668154,6.32
0.609273449336186,0.898432984511536,0.0750429811858747,0.729503465337783,0.904695787260399,0.618732343333178,6.336
0.735323787447874,0.319372226899431,0.621589589514235,0.997555573540782,0.261234085830317,0.359497954346397,6.352
0.578153117111287,0.299237398429034,0.528656225159443,0.0917067323779638,0.0930308897687582,0.646564089149347,6.368
0.0104870486537679,0.856161283081593,0.993096564744749,0.791113615451416,0.222734847782679,0.333731637922623,6.384
0.738191617470562,0.352724655465907,0.00572914413057213,0.442863401919963,0.678008867277831,0.584040292250445,6.4
0.296714427674206,0.617059273339567,0.756068985770413,0.621605823404795,0.790217169002211,0.719573705703062,6.416
0.757506693588735,0.305661287904897,0.581127088644422,0.341929779310174,0.789005361810561,0.624953346705015,6.432
0.982960497406283,0.351742132677522,0.528064237491728,0.418492012863593,0.781497364926687,0.166500481947812,6.448
0.519087644052502,0.406657879770022,0.118983978652045,0.196303912478604,0.284734579247501,0.313811796771436,6.464
0.713075670136519,0.16418440226439,0.0199616879297047,0.192638951609458,0.594241543267567,0.649713608991939,6.48
0.427311129815306,0.9979558431338,0.791356589958477,0.957583315809024,0.708781940682722,0.272513215607026,6.496
0.880520313101762,0.198463911933354,0.0864034141757737,0.784371943747042,0.479278309411793,0.309123997095096,6.512
0.496651944370543,0.935741109530634,0.355215206413771,0.454301951983102,0.348337384536596,0.750779775151502,6.528
0.202129402108002,0.230404734426935,0.542764832531917,0.364426050427782,0.868920497708485,0.75238870623354,6.544
0.0181149304146451,0.724755470695024,0.287047882849818,0.631293013094137,0.399241170029685,0.0230145175209219,6.56
0.898925155636197,0.347924724548557,0.772516012300915,0.0670989433458242,0.540498811297809,0.145078812566825,6.576
0.246216623358817,0.56976560135868,0.838755514462483,0.610388490782991,0.254899914951313,0.324942268491671,6.592
0.648048025236615,0.779861794602146,0.324080115045632,0.813291092079818,0.370005311313669,0.477328773648336,6.608
0.0197800081937312,0.650590706414808,0.036738325555341,0.671733311802408,0.0193766520254396,0.289817265250573,6.624
0.14070064512855,0.00753975275743379,0.981028053809839,0.52293117612422,0.307428198918654,0.229707758035435,6.64
0.96879069014519,0.726539433179535,0.949096853818984,0.393526418522769,0.517081868943519,0.784202630155395,6.656
0.764197111982747,0.403607344027556,0.368981809076463,0.932560039521475,0.654842453638979,0.654763086873777,6.672
0.82558415489764,0.0279535113441848,0.597331166836457,0.984774987363845,0.375375683742655,0.651997026674064,6.688
0.934279320633728,0.816477046620727,0.457217789874429,0.697431493674753,0.630175848432813,0.259522694271441,6.704
0.594892142480691,0.333370827012712,0.565533992041719,0.992732019420509,0.454060867808753,0.354337065157375,6.72
0.327282096794029,0.738615825224601,0.633586171515307,0.899309393840082,0.654647184101256,0.747258913466549,6.736
0.235078110163787,0.013391838599961,0.417493086499747,0.439476919162904,0.343587722680337,0.772227073895303,6.752
0.924178458769261,0.673952974853423,0.010641828878397,0.558421999159398,0.908300782740268,0.15618978401911,6.768
0.848512546736749,0.636508560310537,0.0253124152970849,0.340924504518358,0.954595048123565,0.519085982778874,6.784
0.43882883502526,0.630029663343012,0.362604830519072,0.465660433945796,0.180784954074729,0.827594824763415,6.8
0.809954454057163,0.62543991022332,0.317123036015501,0.851060959800427,0.742293588164128,0.551730687077404,6.816
0.911067155252115,0.179224410102913,0.586766878408551,0.593427793903399,0.199063505693552,0.971462064867034,6.832
0.775728730746869,0.210714147777602,0.429074829435139,0.41192928681454,0.169756675328062,0.532857873833889,6.848
0.717576171457187,0.519537564141958,0.611452647218099,0.469302414006668,0.99871223157655,0.852996996776874,6.864
0.801453186173774,0.780891506130782,0.840788657335717,0.5835736121315,0.0785532629602647,0.68755051084715,6.88
0.255030420182484,0.639044744067795,0.208861024568139,0.280107615603021,0.197101678740402,0.568555439292211,6.896
0.82584593510459,0.834728369567385,0.467335711173008,0.580941351817646,0.852846565288174,0.720296189026021,6.912
0.357714992397048,0.681083530163291,0.709881263529896,0.0865021673297796,0.873467522919244,0.602475063911926,6.928
0.0263526427470508,0.119665325042425,0.843196066943284,0.346348951065119,0.26731832638542,0.387107874651615,6.944
0.966271845878672,0.847214314906305,0.212989691087669,0.124494796784367,0.933261318721016,0.289913487779584,6.96
0.939029101342624,0.802332076466545,0.481942140373601,0.115641630338944,0.374081509286029,0.794288071487826,6.976
0.0404541655385452,0.490813153686735,0.0602406502164057,0.41395157682789,0.78183228473902,0.835806128037385,6.992
0.21314474561666,0.95980945410926,0.846954322817017,0.42534295921573,0.568215626629338,0.0451593793940446,7.008
0.112399057998129,0.0909238475389446,0.826752322471408,0.691147392674438,0.957844017656941,0.109221161943831,7.024
0.55143579250435,0.633463662351939,0.837034786804975,0.523210759234636,0.41458166755288,0.432157988569685,7.04
0.695809872623588,0.548595010744657,0.85923736184301,0.599420110170474,0.08915669499919,0.198536250191704,7.056
0.618959952542651,0.93561985699948,0.192398794211734,0.501883729185164,0.0466306471304326,0.524824146996355,7.072
0.86133914120832,0.731828062153903,0.527211568649243,0.284423924933283,0.506653386442876,0.392115843403352,7.088
0.5663415414106,0.731863398539078,0.97612284523045,0.941279187319449,0.868112322552434,0.50722012546859,7.104
0.319932465596419,0.941112558775274,0.908827424201825,0.506085336526117,0.0832018322697535,0.139454779559554,7.12
0.644814938521553,0.231650765323425,0.303256869107617,0.061635334942741,0.99309343151907,0.471612034595374,7.136
0.265997115574419,0.583736396553434,0.637674870246849,0.228170919993263,0.067596880341672,0.63373002142298,7.152
0.515793574631755,0.0634782615383302,0.730714419833178,0.80205256999598,0.91467751569429,0.641873554106369,7.168
0.465726689066164,0.572133404110553,0.46342964938022,0.00742337716295083,0.304263186903683,0.0607473032307441,7.184
0.774305766961793,0.304895144743768,0.0178539788195118,0.841688327382634,0.0719071366956591,0.460718693925578,7.2
0.166851900837572,0.900105362642211,0.0400836194965964,0.571940688294761,0.647430704369802,0.449657228663222,7.216
0.154205934966158,0.759931804347886,0.377496076711665,0.777698405833241,0.166044190456084,0.80581597844221,7.232
0.828907769647707,0.731493667333247,0.843053966642612,0.644706124574909,0.843643581652967,0.768344116787465,7.248
0.812291079492619,0.345615910428489,0.732160012774112,0.148635954783769,0.529292410989472,0.216318137731693,7.264
0.270278547263596,0.28446306518137,0.052709989750653,0.190553063305699,0.141040725836094,0.579205238622375,7.28
0.201572163319559,0.313895816311434,0.367756879536432,0.12810480355242,0.40784432437476,0.595413532156272,7.296
0.015876757024564,0.156200409490024,0.968860365525566,0.156248857436148,0.54097420735051,0.0510445957464494,7.312
0.998483643036255,0.949914970402147,0.633355998778211,0.776398499324396,0.567089311582163,0.6222926366389,7.328
0.340885491311069,0.00434600993634893,0.156993639649025,0.594780687174664,0.662665549430263,0.615634598028756,7.344
0.889976592116496,0.618483033048401,0.0307938998936547,0.22787985186107,0.413629142338656,0.47635265073646,7.36
0.0107859848964937,0.331072741421759,0.59822412706262,0.0865529625983791,0.944651680169534,0.751640775020335,7.376
0.797162600734112,0.207301909850099,0.130756431120199,0.238203669641801,0.694466870451971,0.0752087583746959,7.392
0.988265736918941,0.539514045715186,0.923489295944153,0.0684649477887727,0.386740997706386,0.958134688963447,7.408
0.066268193372084,0.407698627054289,0.211390410736404,0.106364089379673,0.929763897366135,0.76702183055846,7.424
0.878947968917905,0.44329420720787,0.74985215234661,0.898998904242004,0.335361901176093,0.953315153680802,7.44
0.553160882220228,0.426212564445123,0.714204841565638,0.987089489427851,0.32237818193762,0.965596666274763,7.456
0.657740560850229,0.532168999382808,0.563467515958244,0.443478812790547,0.232875419106955,0.843935700973291,7.472
0.448489981202529,0.315972081339615,0.31691969396908,0.4094294963686,0.475483133946624,0.876174537735734,7.488
0.138814755979438,0.310474998193086,0.892259949043969,0.197971729673795,0.826486572562947,0.900126481409862,7.504
0.985228430881933,0.928266509136011,0.842654967804781,0.518503358516061,0.145797584316344,0.339268483170936,7.52
0.871121429071899,0.683394918396039,0.222342292873465,0.632889409775325,0.302920866524871,0.0758871796152149,7.536
0.0832339193776065,0.870261527431838,0.717991453436508,0.55962000438994,0.277517813795352,0.707739001927214,7.552
0.215285270415636,0.796160061504308,0.861057505374886,0.397572198559005,0.873199054032851,0.0251108142586509,7.568
0.266654526996587,0.41838758301306,0.709689006734516,0.886157907338676,0.800487917967502,0.248146047148611,7.584
0.438091192366213,0.312242053340074,0.422925700786364,0.382581970102687,0.398735862034206,0.170744088297125,7.6
0.199078438636134,0.190036342678567,0.586565051450865,0.460863218649722,0.245740546978861,0.361744139550124,7.616
0.428299621732149,0.147360486985217,0.520599565418624,0.916086794397842,0.875308922205887,0.975852196734296,7.632
0.291675283477862,0.578820174068196,0.876573814291586,0.571428752742523,0.288265242012913,0.34708682681005,7.648
0.653394603975321,0.345040456638639,0.999927842073226,0.534451985358923,0.0813772297394206,0.307565758614604,7.664
0.96742871932551,0.391835734427989,0.661460775184461,0.0409818296914912,0.269212993669905,0.51106481333257,7.68
0.0616490287822532,0.659543670712912,0.553970926841077,0.530093373693044,0.389742199783306,0.427863339109819,7.696
0.909152248397397,0.54018920797606,0.244051969445805,0.427779234178992,0.606485055544562,0.165768200597931,7.712
0.775267093461934,0.0728098487886961,0.575501979351829,0.166287374690463,0.809899388107715,0.521565425396578,7.728
0.514947126456608,0.00715484265433464,0.933192931832776,0.268730700456075,0.665490646186634,0.349817065322585,7.744
0.750034831081679,0.0268154448889062,0.565098685261574,0.1542898444499,0.794460874923021,0.397606602824088,7.76
0.179248314044754,0.339669588590507,0.784336819764277,0.107484413826102,0.333106676188165,0.104923544180922,7.776
0.693289378792461,0.980287350974845,0.346832315113069,0.976674608556115,0.753376742136037,0.711793987225096,7.792
0.869421622190348,0.288962507246538,0.997551267246377,0.734597013629912,0.795296179661916,0.601549613821584,7.808
0.984623262471216,0.0380339037509253,0.970529804476422,0.152404818597313,0.698643726373672,0.851243807417115,7.824
0.160182153496061,0.958009859123406,0.438038791155369,0.00487834097973117,0.637174603480081,0.825505475586812,7.84
0.712992661113936,0.365356045293486,0.258494433265681,0.653158096700665,0.743494247473299,0.383280136094312,7.856
0.343401121652632,0.831195579677626,0.502519039833913,0.482192201229535,0.742684412245103,0.127633842599981,7.872
0.36227968996106,0.616163461111009,0.946474397098112,0.533416125588693,0.498352492471992,0.536776234593473,7.888
0.42038155165572,0.737195503531618,0.255845058905313,0.460137996514013,0.759343372821233,0.767911308467762,7.904
0.355063653758261,0.0513872573197801,0.733823576649653,0.207635180155315,0.206784412096746,0.280567607064163,7.92
0.523983145495796,0.022399158452057,0.544345029507561,0.50561641849153,0.299861609508594,0.2344167199816,7.936
0.489164753364923,0.844443882497348,0.883108754349866,0.870184736588027,0.814190337706164,0.963766876170059,7.952
0.889171321487154,0.604583004028859,0.58888735877156,0.14286016312812,0.864596564753691,0.408588675880767,7.968
0.753705805456764,0.532735269892565,0.496751554210781,0.141026066198712,0.978156740089827,0.739018001787978,7.984
0.984090153137672,0.514295809777849,0.57773451241764,0.167748191543294,0.0205331172930522,0.279703067837386,8
0.361675470392625,0.0101894635654745,0.112620336284198,0.0049408313671645,0.231576779391119,0.976400311622524,8.016
0.606913027512047,0.263919708029704,0.130945774578664,0.658651269147362,0.0368570660468567,0.109459653495445,8.032
0.812248524187507,0.0606285897367898,0.486590831994553,0.998224665484039,0.994499448495673,0.306529103340001,8.048
0.222015776594769,0.932739938195905,0.500362296672482,0.989850256097034,0.83064302358104,0.663326084525161,8.064
0.0811525736646618,0.466615122445241,0.744335601637531,0.334870842523272,0.0365450992832318,0.276961357423308,8.08
0.175359742301064,0.43280446503781,0.968088862067526,0.0806550836340322,0.58204734807536,0.0607070219422003,8.096
0.444300044625788,0.618822950395688,0.872179991378832,0.369805317768545,0.308085884340972,0.859375722797365,8.112
0.812028122812391,0.80005757769938,0.504126085238103,0.116385168317238,0.29498020722818,0.172274920475431,8.128
0.632157509998606,0.103608806038247,0.237551555540182,0.827550776842616,0.825930613264298,0.959944128008697,8.144
0.365664011907307,0.302876342175749,0.186468319317943,0.125434181657993,0.0704194003779909,0.945170060978182,8.16
0.78383996043151,0.364263315001565,0.829526394972848,0.300488013755681,0.458807592069055,0.654407953501629,8.176
0.366200826998313,0.749120808815076,0.220600278529197,0.184893491910637,0.257399308698134,0.716822563126755,8.192
0.269119491831659,0.114435352455446,0.358299748783699,0.31201740132364,0.706017246518318,0.99952752650994,8.208
0.322552050443594,0.681907749088886,0.959076209752826,0.66750579057764,0.431314059660982,0.0881488351861702,8.224
0.128640114860982,0.363424172183081,0.762278386728588,0.772710570533703,0.643492497886763,0.582021908991396,8.24
0.114123316493855,0.418474157596984,0.995564653484936,0.311920420863688,0.800075568794773,0.368079020224217,8.256
0.437299112382988,0.389334809931268,0.918833425897422,0.787801987503568,0.0478710796726174,0.9982427698295,8.272
0.281974929920112,0.537363707975868,0.698817077628823,0.586749111824403,0.960536329341561,0.900125011198164,8.288
0.39342436154168,0.521832977997487,0.382801641045453,0.0829629576522437,0.134841665137361,0.517278443553745,8.304
0.445116401732389,0.0643897046198141,0.620777871899055,0.630092214125792,0.669180652159333,0.00869567483343991,8.32
0.357818567617864,0.720291271965326,0.435124027420487,0.0229521049514646,0.695917006874585,0.899733187108499,8.336
0.366865202468229,0.579169584435043,0.847436194460274,0.498482328520818,0.415165462559794,0.90477856417021,8.352
0.00327955549582781,0.113292669346654,0.234043862969759,0.528539046892525,0.627051880150241,0.347762579939046,8.368
0.953256845583367,0.978855125891349,0.789600459818448,0.626909993103526,0.726340790282612,0.0958522871049088,8.384
0.962561659568925,0.899085311253535,0.682412333464492,0.778818444437975,0.0962678967902306,0.808135773547948,8.4
0.0265812874976679,0.806625749367614,0.308883263852415,0.578196643633573,0.442311906030334,0.604341778821308,8.416
0.715679261504205,0.464368258660656,0.562586587703736,0.658171719129451,0.676236859627114,0.315983008799252,8.432
0.745253074867811,0.68769578329694,0.886264806339155,0.13047811504008,0.66651837134166,0.356053920738813,8.448
0.0375150345127084,0.722423855967775,0.0647526529497824,0.35914925872702,0.944725102716602,0.158553755825228,8.464
0.646523795902179,0.887377709078581,0.718722765462055,0.507013268171244,0.829180767875379,0.274680714434622,8.48
0.560493086943884,0.28682557313917,0.892419227723376,0.331582457396179,0.850101041049766,0.627779556895556,8.496
0.999710659665614,0.386138763182271,0.69334167879972,0.966375302202396,0.410640192489831,0.669731522813593,8.512
0.234118824980254,0.124185318208503,0.8321417189383,0.419478693667488,0.46626202692277,0.552016860259542,8.528
0.539238009389961,0.959337754116769,0.662179889368036,0.423591948370685,0.3214230837824,0.390707944456567,8.544
0.864828544351867,0.469295179367007,0.662131152328013,0.938438220990213,0.565047516983208,0.0645297480442628,8.56
0.417182722574463,0.851006545234197,0.915092342747056,0.629597663714869,0.0700220025030136,0.935842285843838,8.576
0.542337015771674,0.515452212099518,0.0189818013735154,0.924798475337912,0.00584454361238729,0.384889702364822,8.592
0.134970313614523,0.311224804653297,0.969731449729164,0.595489146871746,0.542918414578499,0.966698648331943,8.608
0.423825108382049,0.256922566075979,0.510355749140704,0.27124217178811,0.883887663862269,0.394866480771874,8.624
0.585261433207833,0.0154032371482437,0.268547677912344,0.341824249797358,0.192594583242536,0.860466634417951,8.64
0.654904956967274,0.0938478324141174,0.0158362383026376,0.216075899815975,0.500261161578557,0.150123622511207,8.656
0.908346487181104,0.924155468954384,0.638303253868556,0.680385764179565,0.940661167913563,0.701664423703968,8.672
0.500514249647949,0.874974432370559,0.0472683540826021,0.4614263062545,0.569524431248241,0.373989848694535,8.688
0.831834640924042,0.752573533491682,0.6695880296638,0.651782897101727,0.106410789884868,0.766262786338906,8.704
0.807661313900085,0.9039901665997,0.59563617878005,0.685653958022427,0.00806431964533294,0.328749356310544,8.72
0.958606043437659,0.839512924490061,0.661314289690978,0.26467478482935,0.145371370302115,0.824053066448441,8.736
0.0536364127678146,0.729624174494332,0.283586420221272,0.522597232676864,0.376154223158062,0.576704824786386,8.752
0.824635643687015,0.465092480005774,0.0287440832279106,0.186249307985965,0.134905831910101,0.464810434320726,8.768
0.365353874777489,0.151380501906066,0.020675850288591,0.167392413207674,0.0739393304342034,0.0874964872179655,8.784
0.942122786812282,0.12050520611041,0.999205352552222,0.216871603107377,0.406216291826129,0.21642052071782,8.8
0.761476723232054,0.396640382240818,0.713476819141326,0.314161154794655,0.234312981026274,0.373243400901465,8.816
0.667680883613247,0.596163275742321,0.495583939231406,0.535904073411705,0.832804669105593,0.727595092507069,8.832
0.112370687253849,0.636243956014805,0.0834196337609551,0.260809442542687,0.0204005094184343,0.834313891122661,8.848
0.529306358025931,0.712376311104118,0.26087681677412,0.191516624802102,0.474363305386405,0.137065192475855,8.864
0.232196232447309,0.272295074649184,0.84150214024789,0.184201770667906,0.0366748341234132,0.985041553171208,8.88
0.226035014636659,0.575334447208087,0.0394777593207294,0.989230138026396,0.235994118461105,0.825149381655567,8.896
0.803671330086074,0.75331463042194,0.372681706475772,0.852629618055102,0.561003355524189,0.202327365140781,8.912
0.967468840575723,0.664705850491065,0.744216741588761,0.503914622215239,0.996614232829649,0.913102482036533,8.928
0.822074399779355,0.605341365419202,0.784122829950596,0.215049557601056,0.562842861094824,0.442291559593873,8.944
0.14141365185797,0.248611503128556,0.916248299294474,0.769310348765797,0.938560485251399,0.58742397610752,8.96
0.505391431991996,0.764027976633991,0.149576787640442,0.212279167823114,0.134444345450979,0.704235535131002,8.976
0.784392980208278,0.809569857517364,0.953924598305391,0.850941495793759,0.76996991991469,0.572413108034042,8.992
0.699331306131692,0.132633623980531,0.906204390738392,0.246111427315467,0.899446352742122,0.257174752255352,9.008
0.301086934411816,0.661908808996494,0.26727682709924,0.655620955574458,0.567974741524745,0.307426743191346,9.024
0.326668948604968,0.885681322147888,0.0907846719799275,0.596524172044887,0.309758359140085,0.116097625407296,9.04
0.0800567757743825,0.902091497719011,0.437373616289162,0.577722887085958,0.991546662188252,0.399108495455467,9.056
0.109913033190955,0.580770170149943,0.20404104298278,0.708249216854137,0.0501813609121298,0.836390277350736,9.072
0.91223413569837,0.568169707893017,0.75826088093228,0.0141516313662466,0.781068077274723,0.951263177960189,9.088
0.639941256345544,0.341583136938439,0.319723094192867,0.177410976433703,0.960840460704335,0.907032313613196,9.104
0.406171338827285,0.333417981770023,0.181970648859994,0.898113598973788,0.170348849415787,0.593827012870485,9.12
0.394039064002786,0.716489591848414,0.227540324715481,0.245375661793584,0.688733716383733,0.429487726872368,9.136
0.949178464253149,0.120514399136793,0.916116495754193,0.872598469801185,0.627113277579345,0.694179615550823,9.152
0.587558365494211,0.564886659967484,0.912273100690987,0.0907449428233097,0.474795927994569,0.317735058350301,9.168
0.211710849242458,0.549726472544718,0.992776818917349,0.399417027419879,0.608745782023298,0.567460439580922,9.184
0.995301419566511,0.138608552246938,0.95771719597512,0.747733730199114,0.376852086246395,0.375639467281546,9.2
0.46680933168197,0.658148836402363,0.467855150640407,0.139882926397667,0.579730108142283,0.624071815639163,9.216
0.414387841655067,0.995092499279243,0.0672449144811486,0.866760256342696,0.0774134210824955,0.592776730874432,9.232
0.313100304397355,0.0708194854463399,0.116053242007357,0.97135708390016,0.354692000478253,0.142071371522771,9.248
0.101376654937549,0.659300982071552,0.576330971221842,0.564593979282012,0.710056148212912,0.0707579009739318,9.264
0.35770725388887,0.62005855301647,0.556406759211556,0.630016044551835,0.0904058972277415,0.373703790573393,9.28
0.74353960930936,0.175816645256225,0.844186308782655,0.230614112777609,0.476628063401357,0.498977447940569,9.296
0.69373216233244,0.0844677157739017,0.203943720294841,0.487927374634897,0.729170975253474,0.331028393438855,9.312
0.5390815811949,0.663613181635041,0.596835969819223,0.497907406343742,0.948496736630133,0.0418683368017932,9.328
0.0299318330006247,0.0185346584611745,0.794084539784998,0.261412507182628,0.279540921699525,0.210033295940276,9.344
0.146657065005569,0.327333941070354,0.455632829062391,0.550526852140501,0.285479977179497,0.958237951615312,9.36
0.309610350823928,0.986776822760448,0.718853757597167,0.379060242754219,0.238279140936274,0.921116858771503,9.376
0.410584839760612,0.825357670167154,0.556493387493854,0.632429925250697,0.636489196498179,0.316794912150485,9.392
0.189585901924057,0.0333237558623952,0.784764220826856,0.737003611918111,0.276381194388429,0.302387845035793,9.408
0.90266966763868,0.32015628304399,0.308752444102988,0.196188628667288,0.881068843260982,0.696601664535153,9.424
0.818555090516811,0.019408194860256,0.334176212875367,0.640074517748128,0.850738529167696,0.0509695806959596,9.44
0.380006149129423,0.763162436913206,0.524916390608003,0.813143708944456,0.0213072226891318,0.237443150719445,9.456
0.985288287454493,0.183635329274431,0.4931385829266,0.041420883413316,0.609585077352063,0.871181818489365,9.472
0.215607424211491,0.74656856843566,0.849886234056401,0.692969519688749,0.714886570003487,0.157434012745126,9.488
0.645555089577428,0.761826424540071,0.854680829921456,0.0107705914951628,0.337747965135685,0.703396521856441,9.504
0.520685588282886,0.156197031966723,0.609986703647827,0.378153988404475,0.00903851917459164,0.127239060118729,9.52
0.558998670954616,0.567912414750599,0.597276647919167,0.0543708118122525,0.561858367272617,0.567740964703181,9.536
0.936182732691535,0.579453064953114,0.415899155528669,0.412299147011639,0.933661568280896,0.579992278672868,9.552
0.0201015753569005,0.383839610249768,0.189759488727489,0.309105040434031,0.453674584724453,0.149047001412072,9.568
0.208679180438745,0.423084426394295,0.651200178684889,0.360894554127744,0.842099864819697,0.693806268161721,9.584
0.254934220269887,0.652524179448579,0.43744493210748,0.715324199097306,0.975780901292073,0.816856598855169,9.6
0.117293367018689,0.321201609580229,0.531515146991532,0.293038726361102,0.715818630839525,0.829915607285705,9.616
0.661798989294993,0.558749954213563,0.0603771546754051,0.378622078602544,0.686791082818834,0.208426283349473,9.632
0.106814917844676,0.536959975661381,0.95772669011891,0.488883935471606,0.138465814723146,0.650491245092507,9.648
0.668735861841187,0.351277862240279,0.17857735936636,0.866529095082118,0.08171459104343,0.4750493987273,9.664
0.799292740498888,0.525211632085787,0.835237483266689,0.450867067083404,0.30324916706036,0.133604839208214,9.68
0.9172980837757,0.0598007739780808,0.222414799968239,0.391824964809772,0.206006106626362,0.0304725855546977,9.696
0.216194602273237,0.174862950347983,0.544734551687824,0.858860127165478,0.751411805202226,0.0184501050968886,9.712
0.362007856941242,0.0605964619497357,0.39601548035917,0.585245007792071,0.545689962509473,0.299223115104648,9.728
0.0690504649631782,0.718036407975087,0.65981706730782,0.928878435623876,0.104228681068103,0.684763150663563,9.744
0.634577968494887,0.568233388965851,0.951611401044073,0.622089526186423,0.440385607376699,0.612022172151516,9.76
0.0186729108182377,0.200608264702065,0.5152924958352,0.850869051838368,0.9331935864272,0.414002922599692,9.776
0.0946683735941418,0.337410585959843,0.889599930370269,0.0445094785753642,0.265957641630383,0.339339109269802,9.792
0.438439295569569,0.765695920273198,0.130669130970506,0.805018767887789,0.210611976833008,0.464524963847935,9.808
0.450230210823037,0.623148653547791,0.960552818908485,0.263040763292071,0.742269716665375,0.95079401239976,9.824
0.480876010600175,0.145587746274196,0.918218932006728,0.83894516177719,0.718017179611116,0.337755891761754,9.84
0.273619020829593,0.993726153103333,0.818533033958628,0.721477042851775,0.134198029246179,0.200525434145078,9.856
0.971498434024352,0.859886349093044,0.26232857021103,0.0932390971927527,0.448963493341759,0.315524227402543,9.872
0.589918907804766,0.109506529511982,0.407246455634785,0.489956532694343,0.688465736088541,0.287738101893328,9.888
0.464653517761792,0.212980635931386,0.513950505043197,0.144022083727044,0.361533262751851,0.599884894440744,9.904
0.0352150324949378,0.407168994412185,0.918091665248785,0.774235403945107,0.826966537048423,0.00239694764532539,9.92
0.138236526993576,0.98986354376055,0.0124998782778216,0.140615416709849,0.0695559055975637,0.024740186349958,9.936
0.553332612390564,0.284908725117472,0.311894206759628,0.725564506277094,0.25188461406788,0.573478025220523,9.952
0.921080318572965,0.198345717827168,0.984998644226037,0.00165830271274903,0.402254876968929,0.732344844013764,9.968
0.698818816254425,0.188493591304092,0.454387859231041,0.0117663054771683,0.353573072535892,0.917389450077134,9.984
0.640935263201719,0.0447523886229914,0.843312386577116,0.0808602973394702,0.697991350617271,0.647365676639397,10
0.646722067034597,0.830206754268671,0.293160714703447,0.685955060679259,0.671191758585221,0.413277933114483,10.016
0.292038055396757,0.422621694804571,0.580520980215312,0.632355355919216,0.751591013019147,0.473462486616882,10.032
0.163390579056677,0.00266455018370582,0.166448291788446,0.3305796475503,0.624972319406983,0.825776576599746,10.048
0.740012985555599,0.00544683158848269,0.393950577081218,0.670278845856926,0.227951189436298,0.274310017834601,10.064
0.267849311135846,0.207176987937073,0.350121401909509,0.809357053113013,0.331838389755412,0.727259579561616,10.08
0.277162377588676,0.509357113695392,0.0436833103365748,0.194465007127986,0.603526930077306,0.342810791379785,10.096
0.531826429235379,0.794063598377791,0.352974859544874,0.402825678630351,0.588852129079121,0.932877428037421,10.112
0.590529193341175,0.502642670946994,0.251882801885331,0.575438458500312,0.865375130895955,0.0270972011627075,10.128
0.680073938436113,0.0868239086740631,0.00591327367848293,0.368659340451393,0.854148724637423,0.952269427767636,10.144
0.699345223658119,0.515690087221137,0.520887138734203,0.739517798501017,0.129947030429061,0.332109600143044,10.16
0.922755241823088,0.306765710425236,0.951464604668828,0.0678461299553035,0.229473134001468,0.0103855126660835,10.176
0.284686655832856,0.793931840959077,0.0865473214254496,0.132626098163253,0.624371892069069,0.405017680786583,10.192
0.709647077182398,0.888578180243483,0.242579980433874,0.992099472806437,0.745170341790727,0.0447334764200997,10.208
0.624688882974785,0.828101094752533,0.630088296116338,0.381994081667244,0.915456031244293,0.193976442726308,10.224
0.00927676001971145,0.800160234223667,0.864915367737868,0.113023763300412,0.765831834594922,0.304393662333452,10.24
0.125562757557522,0.344992953572047,0.0749269847499427,0.327553595856255,0.226150079630183,0.214748324840281,10.256
0.520786475378398,0.140191636804848,0.578666991209131,0.854754668283595,0.957186173914132,0.999768341516075,10.272
0.623030306107061,0.897462582088669,0.340350219268061,0.294797510562679,0.560033129335324,0.730623791298413,10.288
0.540732253612145,0.695442567719642,0.57649745166643,0.429108634335772,0.256833671066364,0.248700814225575,10.304
0.731448756077517,0.979231905077323,0.011876263648077,0.532232840682027,0.984486295326603,0.93388249611774,10.32
0.00757854387628798,0.282710300090812,0.212249781014599,0.646621327236954,0.785407402002274,0.31498328866747,10.336
0.130133717737626,0.772830274814186,0.435746284962913,0.328211347846945,0.134340828179052,0.40871384818356,10.352
0.280107697709051,0.127833306392656,0.891517547198082,0.667621617213978,0.896195023555961,0.230784532690769,10.368
0.179265758619332,0.496748876719226,0.409194805493215,0.889751796731912,0.554828114858368,0.74621446017881,10.384
0.217514781906023,0.504001976674881,0.149083358201763,0.311307444059828,0.219271689241841,0.610486592193918,10.4
0.777311330228295,0.0376299379756599,0.579666807436963,0.967580475794538,0.691413601283556,0.776524692072714,10.416
0.903402900149141,0.520617310535014,0.837651645470131,0.857851947286182,0.645387938891027,0.386589641362128,10.432
0.637260781583206,0.517590674018325,0.789612436707952,0.636058006535714,0.475232742265337,0.18556650116946,10.448
0.438561166576757,0.234691249030884,0.00218012978706605,0.990657847705583,0.0837462466753774,0.932689714993474,10.464
0.50435251299542,0.412559414682295,0.112123454010415,0.797358838138881,0.63134691107122,0.445650654867158,10.48
0.219132448554853,0.318355082730822,0.441303792673268,0.00801101726833409,0.147498742387402,0.100332823468245,10.496
0.358570549176757,0.595491250384456,0.147412430699965,0.712229082371342,0.19353886646385,0.979411465100178,10.512
0.14180839997572,0.555166768015335,0.0359723283227894,0.552159509214235,0.0520829632655707,0.253360369531266,10.528
0.0639075307194042,0.416680942060563,0.530010068698627,0.209999460173466,0.666566554308909,0.00562028018634741,10.544
0.197413831667755,0.449693963041896,0.734588268483225,0.740888336045846,0.494382958709293,0.234357218366764,10.56
0.827009959636057,0.336376456335438,0.566248677895391,0.381991800951885,0.713506444664541,0.370207779294425,10.576
0.211964692041249,0.423674891128365,0.585244373490731,0.273518898583693,0.613969870516191,0.516174352938001,10.592
0.666791728509586,0.719876514706081,0.737019486764329,0.166193802517958,0.300138169565029,0.358356350840726,10.608
0.84853087598684,0.587280103319003,0.94389456161045,0.122759564801073,0.216385346767495,0.202876134309771,10.624
0.59722934238148,0.512892825080212,0.823442102207229,0.176280498056732,0.777710393040862,0.950451895966728,10.64
0.525294506529317,0.20868738146938,0.695679192178123,0.123144142259243,0.639142520987773,0.947367466189315,10.656
0.938329448956195,0.754366553782143,0.245458403513249,0.257812241579346,0.128227043857854,0.353651771919729,10.672
0.672352764339404,0.803890130469236,0.335001509543211,0.304192880613301,0.960456410559476,0.0866458211311407,10.688
0.992665463799893,0.00582235173840129,0.798797563910439,0.504847848305041,0.71176195919062,0.176329151029561,10.704
0.830346390777251,0.109007447603929,0.336296640023358,0.470513174521588,0.880119548167622,0.868271787889723,10.72
0.0688328477387594,0.951507017407836,0.016281439853407,0.221724053164853,0.597260647940999,0.660574824246885,10.736
0.226896721554269,0.448626468737238,0.384645589790626,0.506589003531205,0.466917383214905,0.620978027617899,10.752
0.170754767329595,0.68902760072491,0.877537417526036,0.595858327739204,0.83612565723511,0.970957103038893,10.768
0.48525973204931,0.60151102241798,0.703947724174845,0.877811867564386,0.166263489022915,0.931702258873605,10.784
0.330395305941525,0.467005557692092,0.323654290879624,0.695646664851921,0.185685514022472,0.53076987183607,10.8
0.173416756616679,0.432234661630836,0.507894095808926,0.66990663075211,0.681586153411646,0.303797179535015,10.816
0.966873534675938,0.180153018317474,0.850424290263512,0.121557427480401,0.496041483437076,0.47366021708447,10.832
0.246730275822302,0.397848428610884,0.786034348424149,0.317891879349451,0.891355023468189,0.837941861031226,10.848
0.0925316667023253,0.647104446458335,0.918384293962145,0.844215481064274,0.0870341743929,0.485704774737864,10.864
0.46235554340922,0.846823986339111,0.739001992229782,0.450885730480894,0.706804553413168,0.958914588619435,10.88
0.707033753741663,0.112428215297303,0.448479536799972,0.809839105767181,0.108740014533268,0.692653591216406,10.896
0.478525181080002,0.947237560968609,0.921269621398246,0.729380939839728,0.517503707524693,0.599914144238185,10.912
0.857792787349947,0.672172014666924,0.0525595635652973,0.244278813564076,0.0808497355906544,0.882724644349485,10.928
0.354869169960617,0.0561310227625793,0.716739713902438,0.560416235351247,0.58403757743915,0.440540018109466,10.944
0.427146493568609,0.423255300047444,0.228194648306089,0.597594345265602,0.149707748388201,0.64961278347712,10.96
0.505814267137813,0.908923365001424,0.972197016110973,0.298292003510404,0.633376106225383,0.819161629666402,10.976
0.26449927176373,0.09085376584242,0.132006474515936,0.108188128553964,0.763810671019211,0.988951569845026,10.992
0.779315575182942,0.588135615787935,0.762433588251374,0.362536692642886,0.926727712633277,0.102591844825876,11.008
0.693941646091425,0.440403106673763,0.845670081117492,0.422448029051447,0.355106505895455,0.995364330774171,11.024
0.305094534269268,0.0598576781028237,0.728127050028783,0.990413528517215,0.528305749200719,0.725902334058082,11.04
0.954072860439918,0.0405268624910032,0.0952208057939763,0.409325044150548,0.0798309273293063,0.782902109603473,11.056
0.977729366806508,0.828807617124855,0.604244984639261,0.911405308645515,0.253542852648156,0.888338071018717,11.072
0.997798193541553,0.234071670983419,0.76939324373142,0.0912446482712064,0.566114258882876,0.434149546837859,11.088
0.386686043081021,0.222293980410754,0.466557201635809,0.00780011235161415,0.378119942635952,0.81663053259279,11.104
0.933928631616248,0.966930075121878,0.8907224675432,0.817038827303125,0.715393253657603,0.568227166641456,11.12
0.345636219830546,0.958103041617454,0.144854067038754,0.913994947543037,0.11872673940756,0.307137028734838,11.136
0.0463671182126202,0.270534743652688,0.632730325344508,0.700145530242635,0.278268543414819,0.155432624153501,11.152
0.0519902911287059,0.833863628867074,0.531306091562012,0.144474051753568,0.651742599821988,0.692333639431555,11.168
0.0243577962909417,0.836043463516092,0.687331315610774,0.256601937016375,0.551273886042252,0.815649370499795,11.184
0.72618045974426,0.727471123111338,0.574675681362691,0.472479734703692,0.159385429175418,0.120213586609827,11.2
0.543918317090378,0.0793589295767608,0.33798177787778,0.0803020132912172,0.114411995111787,0.874741342221572,11.216
0.672826456998208,0.978060066137415,0.910982914342035,0.533224486815348,0.0100502697906671,0.529674742667746,11.232
0.289187965810258,0.885982230170298,0.35684185480804,0.222455041997876,0.49453529338894,0.465809551189927,11.248
0.0670923293577731,0.752975786235764,0.410862229360151,0.425780603572945,0.229005660487813,0.28145138351478,11.264
0.630056597549255,0.648119770744799,0.0437965929412671,0.564542936696942,0.953063153790085,0.66392772612329,11.28
0.326353185633822,0.823921470208089,0.720583033426599,0.343308797950619,0.196885119273945,0.987282027436452,11.296
0.0872804612664095,0.456215789951171,0.93095879821196,0.196368752170566,0.856846645710994,0.00592511779678562,11.312
0.971238039552897,0.943216955804096,0.314708781296495,0.557091083207935,0.473391246003566,0.416518212955085,11.328
0.88597177010699,0.915144818271039,0.567641999196436,0.507044211897442,0.491751381572306,0.99129271145852,11.344
0.0896626228076528,0.33523765817873,0.734994408458485,0.223549155958753,0.845040892388716,0.723149965363192,11.36
0.669791070151295,0.872105572114722,0.304194217057108,0.0275147022599411,0.757545338931085,0.039806280273597,11.376
0.939213099063898,0.109192849949997,0.355375430660173,0.535429930238444,0.773158255534805,0.678075745096987,11.392
0.909160969817546,0.416013688162936,0.645258421000396,0.304861541319713,0.232219509349604,0.437790374864573,11.408
0.335638697791102,0.507447203309786,0.747633885200702,0.889804644998821,0.274403232548268,0.622918222581748,11.424
0.0705073715873695,0.503661505212764,0.225797514064676,0.912040166478464,0.903325419940996,0.248497339971029,11.44
0.385109317636019,0.310686414824948,0.0529407813014285,0.699333824162939,0.0952285716054616,0.183160520224338,11.456
0.0208754477518673,0.728147111310919,0.512897174538108,0.674262274384843,0.910933861699316,0.319818145716526,11.472
0.269802534452771,0.805081560297513,0.317774296030388,0.249195164093153,0.887752899530812,0.362742223506775,11.488
0.676625578023488,0.805808465445226,0.593144286100634,0.868952249120195,0.569311010241244,0.928644684012449,11.504
0.358698740235228,0.722124003946273,0.628390433782893,0.205711879913163,0.960436018943376,0.148467369898868,11.52
0.119540861215755,0.425368059084181,0.377869251850515,0.765745561767073,0.4185758555585,0.53624798969575,11.536
0.463736076359779,0.60084911362085,0.0585165024132908,0.0744953091065973,0.414153601637943,0.11917847671647,11.552
0.0661735155975609,0.933136974103791,0.926919317669336,0.512278847589105,0.861157768070662,0.533697656587934,11.568
0.736435355184694,0.229282189962382,0.514178906036785,0.462991540448608,0.724976965128751,0.66231823749622,11.584
0.8436399942947,0.00707056281446261,0.0622729654065813,0.565406294277438,0.791523013929662,0.999548648538105,11.6
0.75625443441299,0.686219017426236,0.965168635960099,0.607747668300837,0.395647008325055,0.789509828815318,11.616
0.478942232985333,0.470427761478643,0.73278762844994,0.226780873271349,0.343781246875025,0.844303304884644,11.632
0.940226070019829,0.277785622399894,0.905487616862658,0.0162370701346075,0.0477507778141687,0.929205548194701,11.648
0.725165102855973,0.847832578464212,0.0393475559328725,0.0472611446241317,0.922048264701676,0.158952910270004,11.664
0.825705899779957,0.33750628104113,0.991219944750113,0.104009482242081,0.693022545719373,0.266557574178383,11.68
0.162293675637893,0.196030602363998,0.713801198222355,0.553662825451422,0.00389024742390276,0.145389348549836,11.696
0.352608731311071,0.34007694234569,0.199746327622178,0.0404158339106224,0.756842926167931,0.538836052956376,11.712
0.520699195827241,0.331770354392621,0.0311125089584652,0.816996252866007,0.200955236817023,0.283955534911216,11.728
0.806646196743603,0.630970330145057,0.422910356902511,0.130632566659571,0.439520729750337,0.0455407011465372,11.744
0.366866892725726,0.347123245265302,0.0010024644469695,0.508256402488253,0.550859440258863,0.578108854837644,11.76
0.504430236444284,0.0602824128274662,0.77699826732785,0.0690923410079088,0.473327261995958,0.0988758551752933,11.776
0.514007800383539,0.56848799952894,0.311732096366427,0.33903202951742,0.394625463549058,0.803192631348073,11.792
0.204592341053903,0.924371240479366,0.811941309772233,0.713131594122578,0.0484494070276505,0.339141165761692,11.808
0.90145076831609,0.0142588133406081,0.181293351176402,0.62489058345909,0.840531142801671,0.725621370111257,11.824
0.464140138273044,0.268955158653638,0.0901204131236004,0.955522848876802,0.905976614509752,0.153186217118092,11.84
0.659151710150136,0.957601624781998,0.294762861329449,0.0938560123444235,0.215155713898642,0.368409477210347,11.856
0.394170528443588,0.0851057420507432,0.0640515260131992,0.801696738345627,0.614490466952688,0.575286162663935,11.872
0.388699728395187,0.977263687744132,0.780115643169405,0.613341627749594,0.700063358190028,0.155903810582029,11.888
0.822654565395858,0.269728949748439,0.917016310918113,0.265020176618665,0.248146641469857,0.353645733451752,11.904
0.618730215549066,0.0811585800088559,0.0840485304435183,0.018687125392402,0.824178551919364,0.745017469228951,11.92
0.468186932697342,0.428739179114346,0.600329191905536,0.259356765765689,0.802049135090053,0.213864890710132,11.936
0.566946653501377,0.965240185078702,0.0127943205786156,0.756231886303648,0.8567416777679,0.710620616770837,11.952
0.354974596102015,0.91879267076489,0.9219830146025,0.954275028936414,0.0341919817154411,0.363138348549944,11.968
0.611961041675702,0.881603416132798,0.557506419249592,0.0676547705616704,0.770154161997135,0.99042783900351,11.984
0.738464133137752,0.0996783103344465,0.118199129590142,0.00625025498723608,0.228449404811794,0.589791712547633,12
0.575100702372995,0.367184433840146,0.89335943537783,0.0252203924460875,0.603539469568703,0.974577571527955,12.016
0.667004984151818,0.419147472837565,0.870969790630948,0.238852030166786,0.20784220465112,0.0631569497658703,12.032
0.687957415813034,0.384742071233927,0.125181504433227,0.86290557923269,0.570630510444927,0.574821401329895,12.048
0.849307975061956,0.0964589188183183,0.454344888296135,0.342634499648169,0.480459605712364,0.679947055808849,12.064
0.540974626748123,0.778309287976164,0.552969390225455,0.492413372057868,0.0501123844198444,0.138339874734121,12.08
0.284493266154367,0.0774748621674451,0.227140354365435,0.511905897484335,0.730238464894088,0.0308843443199812,12.096
0.761116957705562,0.495346023482835,0.814506064509641,0.878026185466028,0.560440496012295,0.639434109359764,12.112
0.348700327591239,0.101879464428646,0.829899814636812,0.510467397586338,0.937175126898188,0.851493461122982,12.128
0.115937491242959,0.790372697820728,0.876366361687986,0.537001648994794,0.262482922632753,0.179742967687118,12.144
0.430947921423732,0.968948987440397,0.830632163945967,0.683586408501236,0.360247563018324,0.276213301669893,12.16
0.917652102987601,0.527127262249614,0.140141848393447,0.842315101164834,0.856738946485604,0.037787873810484,12.176
0.0582441572667248,0.579776432058249,0.122449385011778,0.260707597150986,0.427459486772635,0.961829145621127,12.192
0.283907651826401,0.51152124368162,0.12634740366933,0.106839710266262,0.973364017458762,0.120141743456802,12.208
0.250098677418699,0.307052937852384,0.315419163231869,0.467955174901588,0.669186764139599,0.186556105534043,12.224
0.42233741350047,0.762693666220886,0.20446580320926,0.584715852056237,0.839232823508634,0.938435501580713,12.24
0.923395276024977,0.849463729081962,0.900292440818176,0.776669191715864,0.172686276332886,0.153061087282844,12.256
0.996843853551937,0.399154572908898,0.407642060105331,0.68247917193628,0.115965261082084,0.923252545985984,12.272
0.655950317041278,0.219852426990957,0.308272817450549,0.754515441500073,0.474337319940536,0.496754553628299,12.288
0.282030655440786,0.248754658840354,0.84770041005497,0.612748400229742,0.414200570493037,0.114460684729365,12.304
0.831725874890285,0.226731693193891,0.817251043301158,0.77541326276324,0.402209016468025,0.61678786902554,12.32
0.843499907452957,0.509109766448082,0.301778699489728,0.148369129245805,0.193197844167367,0.386658819341242,12.336
0.188538993673589,0.196161828087549,0.767562908563885,0.945751676918611,0.218099671376292,0.114368647055718,12.352
0.628762448596711,0.567380028393441,0.558156691615356,0.670159246960319,0.880890649558567,0.553644641651439,12.368
0.197555000181009,0.529721589649205,0.935534882530227,0.672465662375003,0.735805931197007,0.244485480057994,12.384
0.64504787909998,0.0791983673652592,0.619487687071924,0.186545297874603,0.889792283006771,0.539978286230109,12.4
0.932619792670588,0.576967172176735,0.100945732333989,0.434857091463902,0.53719511882073,0.159351885899628,12.416
0.197269979214808,0.756922562369109,0.745165276771397,0.365574115086005,0.680416400692284,0.517323121987847,12.432
0.46309192455165,0.273020221299345,0.401151619410303,0.887263767681335,0.672189406369684,0.132866662633583,12.448
0.839419759102181,0.119507254642838,0.35082566819368,0.881631899258762,0.874108771975468,0.378150279205262,12.464
0.721079096629138,0.0246936798027682,0.233569959084803,0.638274561134504,0.3257778746527,0.352024173246973,12.48
0.959720507975614,0.574845207702623,0.237658752569693,0.337204531069734,0.788590711026682,0.846814203195197,12.496
0.149976866168669,0.641999044507949,0.173347952103119,0.57184552015974,0.978890783430232,0.0181062963997589,12.512
0.68757240753951,0.0317989833784527,0.452942907575826,0.00890990528092395,0.607368490924767,0.361054644041997,12.528
0.436120854647301,0.0845449469940174,0.814778277693553,0.40273341134254,0.516155153590158,0.251759119725351,12.544
0.400526027028035,0.790783398939808,0.0462414124500404,0.93268418215639,0.567858155139331,0.909529802357539,12.56
0.625793313343715,0.642006963096919,0.644788634375346,0.528236369748854,0.34741597326984,0.20927442340478,12.576
0.156278229787997,0.0404514434130412,0.0922976518307892,0.518404591279706,0.730391225010528,0.313819777067066,12.592
0.67612871639066,0.351810021112958,0.696666253988961,0.196601676378989,0.92323659568889,0.776864829846174,12.608
0.45911896943378,0.238125834055395,0.0249285242676678,0.175813041060793,0.973217487217235,0.554485228542062,12.624
0.302194557077101,0.461583011865402,0.93439841661077,0.0104972786738536,0.472470245455282,0.277706570926345,12.64
0.0789071453671727,0.321126232494101,0.299361283856699,0.408195740470908,0.762570673095873,0.195975551701482,12.656
0.846792249626798,0.415869180797533,0.168246504984579,0.443981748021348,0.96389679228849,0.931157487923408,12.672
0.10655358836803,0.483947199540928,0.829614735415307,0.0600549550405246,0.747794312402392,0.156089698223313,12.688
0.86525223000322,0.373811860711298,0.527993886840712,0.952257439663182,0.671787725915441,0.358327038796229,12.704
0.908857679925421,0.0637158919774566,0.0126304769507144,0.606290516937466,0.904371843266954,0.182778152052021,12.72
0.204231873637753,0.983764175121386,0.888691615655688,0.898042933910835,0.544630796393584,0.92408554760962,12.736
0.975315225863704,0.423734862516606,0.209177040669677,0.399698996852537,0.0338921382165174,0.263050834049276,12.752
0.147870758279425,0.41778186191974,0.50249526329423,0.00418094694538063,0.943266872168406,0.0566571455248046,12.768
0.371380027153531,0.32047967613728,0.793234203092221,0.0364279569204307,0.0371888936581477,0.443343307726913,12.784
0.164732581710266,0.189665245101851,0.541117092851246,0.479907672130065,0.773110152482435,0.233000253286236,12.8
0.589749067893215,0.00981422592967474,0.942680911987041,0.720482556072871,0.867333036026217,0.764946682922077,12.816
0.29376369975338,0.876332795082857,0.0566914789597466,0.505488251577018,0.0284165652958164,0.707651472639892,12.832
0.0820396775014041,0.601030397521906,0.652807755628136,0.931473156228004,0.507392931505833,0.701975401608822,12.848
0.0219143273297268,0.848273679104223,0.0176713228688663,0.530907737522986,0.793233096478147,0.395603323601722,12.864
0.297548369481363,0.720404818931259,0.64581278990172,0.549505399624619,0.779781659835024,0.40438535416458,12.88
0.599697251094257,0.131771953932144,0.292899358049694,0.785219864314448,0.486406413614246,0.967200052790968,12.896
0.495701445483673,0.341429177493944,0.75731190503251,0.796208386548915,0.0613334393107348,0.490862610561049,12.912
0.0152512227003097,0.474126332325189,0.00666223742870864,0.166960659371351,0.520114916870982,0.785531424584536,12.928
0.40895004492328,0.518529328343631,0.732523691667754,0.798540452605313,0.264913882226648,0.837482855426284,12.944
0.835960028906896,0.785691679290296,0.36717614641548,0.431184638037286,0.121916705452419,0.990078585961683,12.96
0.0326042624004482,0.673700914859189,0.328265571586173,0.368729719702865,0.27805321089429,0.126816233278865,12.976
0.839798221118957,0.364709077780166,0.389471391858414,0.913013805464375,0.0487393482030192,0.231547021899792,12.992
0.98753725636146,0.910219146322456,0.148448347742418,0.0525351382256074,0.572329754274963,0.184483604838999,13.008
0.847583786248112,0.603803641048537,0.810509142118987,0.223701803302929,0.977071191194826,0.828179128094786,13.024
0.133225326941822,0.524961759946329,0.0630952165530779,0.858943910197449,0.24583591275689,0.209227332186965,13.04
0.562518256576782,0.951661192855206,0.669375903572866,0.479794025034665,0.966374557237813,0.714600851720817,13.056
0.364503114659969,0.832402573991762,0.290442881974278,0.485797047023203,0.451731623491018,0.333670990826429,13.072
0.617474640741748,0.100307516970341,0.704325041105395,0.188744843032268,0.950276746066449,0.74001175960831,13.088
0.168634002571193,0.058524680734793,0.631875722602539,0.0939524478913718,0.449147594855866,0.980486089640907,13.104
0.878129665164929,0.85661149385806,0.537347577877506,0.205601986144412,0.547523491472667,0.652987772441526,13.12
0.0686793628767227,0.874696697554895,0.943022001262664,0.886150382884087,0.842239470900503,0.169311167808656,13.136
0.902466462471148,0.14677562493859,0.995452155256188,0.805629391623548,0.917927744765491,0.113352917040837,13.152
0.0353756382528418,0.259993456497574,0.0995191256846686,0.0328036562826337,0.381570804790437,0.335105372761717,13.168
0.682533439320858,0.640445988173134,0.786611818173661,0.93613485388108,0.207012341953316,0.161775046579363,13.184
0.192521881674064,0.357200300270529,0.849224805171427,0.402911657455183,0.372413361104678,0.0725119677328286,13.2
0.536924339368591,0.706533346524381,0.0977598780863886,0.390763489186135,0.222932025483811,0.288054680070408,13.216
0.852231362545144,0.707357950693894,0.654322893161118,0.533017452104047,0.39154790598284,0.79865466632491,13.232
0.450148387390692,0.511732340305075,0.658418137971435,0.26327284867021,0.804040368075779,0.0897578135185622,13.248
0.689434672156985,0.308801626024951,0.764345582899068,0.733958722255302,0.901352707594466,0.561527285541743,13.264
0.845232839472311,0.295825528960007,0.0362974591512505,0.222534210605999,0.777293693478195,0.130875878253851,13.28
0.977032034240505,0.62459462135772,0.964305322023651,0.0913209716479649,0.478607295999126,0.20785047510649,13.296
0.017327492472845,0.142479067768471,0.652520689367801,0.323747971010119,0.0314703532719831,0.0945500495761681,13.312
0.270800050243038,0.329047223195529,0.794654364278807,0.424397103386591,0.649588052073109,0.107152189705504,13.328
0.263314527726177,0.816495526303984,0.685399332481792,0.41548992728858,0.132242898976298,0.42750929623645,13.344
0.105532014262887,0.628884895015572,0.386438568663017,0.540098491050884,0.388294888303483,0.371831662263657,13.36
0.992620518214735,0.047316836588787,0.557994234296327,0.153229338197529,0.707138661379521,0.124896786613159,13.376
0.207377306047683,0.900573242228438,0.151885341094305,0.528702481840007,0.167557770906175,0.0452917879397694,13.392
0.818562025976197,0.270844091778552,0.632944286507376,0.452165595145769,0.263730536643424,0.446325402265758,13.408
0.441491301433559,0.974976627153904,0.432516014926755,0.936945062975095,0.0322444599426328,0.78918815308282,13.424
0.127186622037245,0.340707551954772,0.772048084857311,0.210761114871294,0.129777363203252,0.881870526681488,13.44
0.52253062153695,0.187946153619575,0.0961406599621,0.23854702493312,0.377160561958736,0.791072227282587,13.456
0.590675611327206,0.390134227174131,0.142398318058089,0.7601468154094,0.128205330349338,0.373492564210381,13.472
0.615383794525287,0.330713370307041,0.169267302481863,0.0428479727980294,0.366175514547504,0.296781572464143,13.488
0.540722390334474,0.815302922154677,0.971117124707477,0.374363510090042,0.347043457662972,0.479155624719865,13.504
0.265636834735201,0.574231707771386,0.368874817948646,0.869496066346094,0.787008199284081,0.844244679044845,13.52
0.00426785781646255,0.682740966148886,0.120286747067685,0.703678904793261,0.808783690753411,0.227074244608457,13.536
0.978477747867539,0.136743869180169,0.195908400925307,0.559977979402465,0.295713750328906,0.65084986307416,13.552
0.4943419621501,0.561943093602622,0.82679817957213,0.428606276454155,0.408433766662689,0.497036273093809,13.568
0.1959840924353,0.760019229461556,0.508247988050924,0.125208795965125,0.936998270900946,0.0869004449038439,13.584
0.803572341683979,0.317439734580501,0.307410446654787,0.304470334762707,0.114428891184981,0.937124430773378,13.6
0.0982464948023294,0.572561590647099,0.196433532777974,0.259441134659934,0.967468428892999,0.0997027712504155,13.616
0.877815014963121,0.246989457021862,0.182685851111843,0.281612003449155,0.260638027869729,0.442429695270739,13.632
0.824369763711628,0.068728462020352,0.770187829747969,0.160335335361594,0.248710572608836,0.0614835114150242,13.648
0.25904567810171,0.0933599989209167,0.794197014898113,0.441654618381592,0.0555950816822793,0.914180771856473,13.664
0.218714362836175,0.190500618003069,0.371210412338519,0.917425470816944,0.953089269813183,0.68224966892668,13.68
0.717097328959178,0.805677490477196,0.309054632098133,0.675546182839068,0.33222665810526,0.792227769830406,13.696
0.377599671702294,0.752701542513228,0.919736119787298,0.0562242167500997,0.403212149750581,0.550515383352162,13.712
0.63394425060827,0.416346287338263,0.965867280165943,0.405813179808165,0.388220486677547,0.589573101385854,13.728
0.346641662884095,0.140887075280337,0.590775536895166,0.281114479184368,0.490700776002266,0.694311261928674,13.744
0.572942731107474,0.722212118954953,0.0750661780243661,0.246379586377824,0.220642565829097,0.343027045869714,13.76
0.0066059021957573,0.467711123449766,0.980876088626393,0.831454409326953,0.282001027421045,0.279468108102062,13.776
0.939876830900183,0.861807822103041,0.857964495945578,0.46359566011086,0.59779937659465,0.948438854380699,13.792
0.953075689223234,0.583961562590881,0.947062530736919,0.274838402628437,0.448761349542347,0.298636622960695,13.808
0.77078467858063,0.482376965427272,0.481618203730092,0.475650084763046,0.0110999967157409,0.438896141815384,13.824
0.645377501899181,0.965551747627726,0.427152985669592,0.600568245086229,0.895910187123771,0.235680243959533,13.84
0.652198649114149,0.739053041198643,0.995849730467701,0.158501464837845,0.476491136345138,0.951300234096242,13.856
0.986274856791792,0.578941744649365,0.393924888486792,0.337366193977013,0.50413316573702,0.848361448488183,13.872
0.92864124684243,0.840818866886118,0.579153132408207,0.669668196320422,0.542125507704051,0.295615729016354,13.888
0.173513086885174,0.163602330933842,0.914670663978844,0.830980084434695,0.0647111348089922,0.855189598504244,13.904
0.354056725159645,0.973725491531819,0.308597015713033,0.562637964077384,0.0544135357626784,0.94828982997464,13.92
0.982657577390383,0.480305462277682,0.315538169923879,0.17885414965109,0.811712055806812,0.187559662389895,13.936
0.613555526130653,0.594056072685163,0.0404074536761928,0.216249769746262,0.222128813852125,0.0954041121069457,13.952
0.608682368076112,0.0974268837617907,0.726388659544981,0.397676243870521,0.275184021466918,0.593990142075548,13.968
0.571521990242272,0.393425771791863,0.514366750273706,0.885287540576301,0.878080079577197,0.569849057387789,13.984
0.0220639060236736,0.0381901048153731,0.766807185374869,0.889761122496963,0.228188762667568,0.683950111394687,14
0.78894646057197,0.506845325470519,0.220368893099717,0.671370375226611,0.248560802881014,0.355296724464369,14.016
0.957430409462535,0.235741695134328,0.425118461016453,0.596559461141474,0.493493374889159,0.259871569594466,14.032
0.0539618543754532,0.807546525328943,0.157500553138839,0.379887518879324,0.249632592245864,0.0323968502976743,14.048
0.533298286010126,0.427446570169983,0.681858052154226,0.0484585454981423,0.624076886643156,0.578220140781747,14.064
0.81738947862671,0.203889029304679,0.171230190576555,0.933250491722108,0.871410584829382,0.235822803472458,14.08
0.34397427266488,0.695011905410714,0.980847656685737,0.973658156167686,0.365546982924418,0.383494744243422,14.096
0.802415040937293,0.772222492864646,0.730972890896027,0.155349960307286,0.543535620375529,0.52575320765315,14.112
0.979293306997134,0.271805692981212,0.910076010730819,0.371438058571802,0.4694151357545,0.762419786285751,14.128
0.190912482907094,0.947090977204582,0.556952406231041,0.0831418529328313,0.587846290731012,0.135623830426871,14.144
0.489769091995663,0.57739561940672,0.0381938676843425,0.522044410025183,0.744763796959051,0.180004611355593,14.16
0.975856060753483,0.0181550706808539,0.000349392898175482,0.599526710693866,0.107853371869253,0.414079663084259,14.176
0.105782955906085,0.078988796456238,0.579547524215055,0.721870972598345,0.626095973703256,0.648359424120801,14.192
0.93413362919835,0.675061113837213,0.0920180731102606,0.0578307356967381,0.701908575281929,0.892766716188825,14.208
0.199971854666595,0.0153441762376808,0.980070629869049,0.127304403324634,0.921493581750963,0.897647575578475,14.224
0.876883450570581,0.165226483396804,0.867646428550562,0.850211705657516,0.369629974538023,0.934966442959098,14.24
0.296075556867763,0.67449463868274,0.205191788730645,0.972645377943944,0.407633500991807,0.209244898976518,14.256
0.422628104300322,0.273301352221911,0.745816247443016,0.32427702304433,0.761648940674917,0.960673938978431,14.272
0.377284597978185,0.0443086191276353,0.40496366994364,0.176558801070859,0.288263943616728,0.519244783527043,14.288
0.0348182730758068,0.682955590200907,0.523390467231076,0.62384473588964,0.820843062223791,0.968344586619199,14.304
0.645473550954265,0.732418846575179,0.213840324097225,0.213493578668628,0.620650731466389,0.258595309586233,14.32
0.201630675874995,0.904077407988877,0.701284760993714,0.342772279629146,0.185142199391805,0.12027914417588,14.336
0.941786312742028,0.717092393701921,0.694782241765761,0.155132929471166,0.603388277226281,0.180363697503634,14.352
0.656885085363929,0.068651127909929,0.403901393044097,0.387655892535878,0.823484984942719,0.939943412142695,14.368
0.560279078938711,0.340933207344161,0.191663694243511,0.439123882113202,0.599708220852596,0.987521702451784,14.384
0.087857521839583,0.0200536253556226,0.428995366269909,0.129215848071283,0.419862208621319,0.822377862714057,14.4
0.811867293852526,0.364835902084108,0.393221047731419,0.90567091640578,0.493099300835193,0.0710702989916417,14.416
0.323838651133277,0.508664095739942,0.504780866086672,0.453444525152152,0.864410499969043,0.256001494623869,14.432
0.743035793325036,0.228494881645119,0.618632492744602,0.460006370738583,0.0898129948147224,0.822893002998648,14.448
0.700155606290443,0.493613062596213,0.406979097433256,0.251870961184984,0.357965446671516,0.112396541814812,14.464
0.0229630087773977,0.345630578079749,0.944665404194785,0.178197581567688,0.0474268170381542,0.6438184204546,14.48
0.751061688773769,0.565042202742751,0.075307083493716,0.0373840817650215,0.0413176916771238,0.845396541825771,14.496
0.035887463158625,0.755192688563722,0.135023150806851,0.0108594309744162,0.0456512994744113,0.39007443731466,14.512
0.3257050204942,0.39803364295003,0.879087234985657,0.22969174550979,0.495374627375341,0.278734179018184,14.528
0.572640676299143,0.278669030509219,0.0719585511324072,0.10825677944237,0.588260048782484,0.29206792902232,14.544
0.823391947454596,0.235469660529222,0.608774943997475,0.423941440682657,0.658844816124782,0.389819271866857,14.56
0.0651989170483331,0.507646811979752,0.431018747270291,0.388623857114674,0.378578851481125,0.0179978174128773,14.576
0.487922106062253,0.633037316417498,0.0748805074619889,0.27447189179886,0.489195188404912,0.534504289655085,14.592
0.466416442331037,0.379308953046838,0.956270956022132,0.263685377633874,0.00402520788621763,0.96757456757584,14.608
0.292123921218146,0.269599592667821,0.393776758424153,0.0721037714962385,0.722577437823097,0.219667137269349,14.624
0.551426799234487,0.151096888581363,0.00519370386479079,0.867824600714811,0.633896020393773,0.514480463127819,14.64
0.283606770295014,0.696633674194739,0.872395390204442,0.73924961025218,0.723837153255873,0.971195263437369,14.656
0.366975655809923,0.901057508672615,0.415544627938024,0.374997738419467,0.59005574679126,0.522706319892664,14.672
0.828409094113972,0.477195155790519,0.187854990039631,0.369394888759961,0.81949179970361,0.106802611781565,14.688
0.840817521629808,0.0456981969452346,0.814819658345888,0.207328304885696,0.57741644836401,0.907561071458193,14.704
0.0979466493043767,0.590859481100707,0.461609756991765,0.567437448781624,0.771538190659305,0.344113224514384,14.72
0.328958279357241,0.239427643986869,0.734905663737196,0.393611886493227,0.151032311586375,0.817358156229631,14.736
0.962846683263838,0.0556768631488349,0.908885583367004,0.178325461639597,0.270186351568459,0.569954856780376,14.752
0.405558448857388,0.953360093461459,0.1693292421735,0.467077248825473,0.2169774131615,0.366945291742647,14.768
0.475531279547243,0.44842377742145,0.437528723116331,0.689009313996735,0.252866756303387,0.35387396769788,14.784
0.410453847674004,0.541339307234716,0.939763735992152,0.623252691771965,0.727423307714319,0.900349482040709,14.8
0.878410892400847,0.166605151010266,0.695248296815999,0.517504077141188,0.117015526446249,0.393845687577917,14.816
0.138191927396891,0.537393994111559,0.687291784590395,0.751434259966481,0.620145251305943,0.898409410438682,14.832
0.0571696538181253,0.592309081151037,0.0339157594911916,0.877723411114331,0.794075039304501,0.245928846291358,14.848
0.657366797834121,0.654967727517388,0.858131771102976,0.382789377229027,0.6471233220482,0.332679211188797,14.864
0.0701697584292577,0.757993363559539,0.474392055425422,0.230161727237319,0.23007634591635,0.864219165667534,14.88
0.981668731320052,0.687434992803322,0.702789380576663,0.372707217379911,0.799141214708649,0.207097014439569,14.896
0.357892214625183,0.559131589017378,0.447680714240324,0.670937963283613,0.854297345171212,0.0943073675334147,14.912
0.667259129461849,0.163416947139045,0.452264786926453,0.380508941739682,0.942058095141845,0.725467990553687,14.928
0.859327253592746,0.752988579017645,0.590574332943369,0.925201493784705,0.927197284348447,0.806160018920678,14.944
0.303191312412886,0.101756182493644,0.910747889698835,0.553012618195045,0.99996166503969,0.691543228857953,14.96
0.153670480031529,0.556718614722914,0.263342795774066,0.308664624776282,0.209963178766447,0.639878589895784,14.976
0.350933116691129,0.127012954813737,0.0362346794998908,0.438177882879642,0.921932509623961,0.25794868070452,14.992
0.0565697317796546,0.622110316393903,0.777650235433189,0.121301939041609,0.775856912820197,0.0576869827900351,15.008
0.185368944101645,0.86886998620613,0.0260884972327364,0.985459910900537,0.389245064446077,0.521756145268732,15.024
0.735232592661823,0.816613050938247,0.793780224382832,0.156673685167159,0.0837810041989556,0.792129215917234,15.04
0.756052604473118,0.332503067938093,0.520536558735531,0.342155639695265,0.648825286232684,0.583470232571573,15.056
0.0871617705614495,0.803017098444227,0.486980173820752,0.471326705449292,0.230495829413056,0.533612785727994,15.072
0.644417182401863,0.508398576922655,0.124190609637161,0.922439093662088,0.483408967943327,0.01085533201249,15.088
0.751972596210138,0.433792652135278,0.10082571296199,0.74627401069499,0.00219154046733372,0.273704244061348,15.104
0.168584734668471,0.393026162267609,0.20770919229831,0.928442978734915,0.896965903517231,0.893634535495482,15.12
0.660095668623676,0.124974836996169,0.677981445011071,0.0954003313733902,0.384327344164924,0.621608224628816,15.136
0.0640177770700373,0.818372032583342,0.0232283484754904,0.569714164772999,0.788397975579761,0.500556973888498,15.152
0.828608634426804,0.185388748991315,0.4163457683945,0.322407506347857,0.355787766189626,0.228603242191754,15.168
0.598514323548262,0.137140146025553,0.731195686479483,0.880162725104788,0.187377355196479,0.869266226759085,15.184
0.924793606096834,0.900545632834432,0.433437807953531,0.502515989304062,0.702390426517798,0.887006168564415,15.2
0.52299925454798,0.641927261499461,0.989246245474086,0.932090274840584,0.105554228246738,0.921054695895957,15.216
0.395194731211443,0.106199806911056,0.0222020418812706,0.597245675569039,0.802161989761694,0.00662711910056102,15.232
0.450900462286042,0.15369669064546,0.829732950561717,0.803917598592226,0.0249190102295975,0.310482777565852,15.248
0.497481118441283,0.51661809525272,0.868564800451187,0.230311194094709,0.626906945905841,0.506690245773488,15.264
0.465450939018923,0.956291497452895,0.338824597377724,0.739516917906567,0.785558554294366,0.186139444000368,15.28
0.734583341021159,0.454825823834928,0.73061438431626,0.73033752963367,0.453363366284886,0.144449879566084,15.296
0.145254559794976,0.0358974051999751,0.992776682988216,0.0728178917645333,0.771762374254687,0.301212255323972,15.312
0.748017860793584,0.582698710342427,0.849145376261187,0.0547918513915404,0.54983691719063,0.410034860449174,15.328
0.58906532636741,0.413131093129079,0.91575691975693,0.368995778369499,0.71946314279693,0.670999290846525,15.344
0.988576063450298,0.169004940559965,0.200158287007273,0.39443368969465,0.517932309887411,0.0550485182119723,15.36
0.660531269990201,0.479684871585125,0.851959853097702,0.567438383402699,0.366249601909683,0.357618966813185,15.376
0.398259407711553,0.930813040735876,0.0147044849992515,0.8111612175499,0.802279556018414,0.1352781728704,15.392
0.827376710508206,0.398697742890903,0.718640815722446,0.150713705888196,0.232509996840635,0.0376603146689986,15.408
0.0698715363923669,0.729514092330703,0.196647452158076,0.782624142088147,0.886930263486352,0.174853177362056,15.424
0.720735209881248,0.801582317456216,0.323558188031915,0.264116828019385,0.0656566530718329,0.671350921717271,15.44
0.94162605870419,0.752603592301913,0.277592239934532,0.109920562955562,0.830879204696885,0.55616053359311,15.456
0.413830774430085,0.824769842672838,0.63578300131158,0.861413640532984,0.0569531838793955,0.406950597625616,15.472
0.116783523607464,0.442016089662383,0.888784483466379,0.540525497575812,0.417021957258473,0.212699862444769,15.488
0.15940278524146,0.736011638939231,0.206375745580291,0.727567990421961,0.262098380459017,0.48189056461772,15.504
0.65040452392786,0.528127436377664,0.26889206658193,0.0773194104451036,0.993480836587024,0.412175391370457,15.52
0.561310927713402,0.587412639609712,0.829711347118323,0.142009871091977,0.202493747886774,0.54502244034432,15.536
0.196450863507732,0.363408361599709,0.877926399929407,0.958429034674283,0.93972631561613,0.252547138381982,15.552
0.695862178974049,0.50028968982668,0.166071321783429,0.988678442693985,0.566358530767913,0.44109707378586,15.568
0.558553738580228,0.874784601045066,0.49917919550548,0.469964727391324,0.299982555763746,0.332167836030612,15.584
0.797307120388612,0.590591123179864,0.49614218073156,0.34329223377012,0.209414201998609,0.982298677571205,15.6
0.38559548680376,0.0142838043465688,0.75881826753836,0.838166936885886,0.8776814510145,0.0882491635835677,15.616
0.184982274025487,0.462381792836296,0.278531044588179,0.901513786245818,0.198867681873132,0.859844630873461,15.632
0.389493091063627,0.116102455506999,0.621974076499141,0.4503496871278,0.05867305668926,0.0360116037433063,15.648
0.505850191934427,0.490635845118068,0.841473068687512,0.463062927145581,0.931660596329242,0.485957459506122,15.664
0.190149059932389,0.284615634491672,0.971041511993981,0.0541754032430951,0.326345679326831,0.300744042135791,15.68
0.901532134345542,0.122429638208285,0.411487725421172,0.623969261365007,0.600986731483643,0.131465938666589,15.696
0.332864432392483,0.912695247687816,0.0849451305902514,0.0882239829072946,0.47604389970594,0.749423898868964,15.712
0.652506903887901,0.781462159549508,0.385932445834644,0.522964568035441,0.442787847168814,0.54016526874742,15.728
0.391071893351918,0.557909724220807,0.572382084192223,0.252284863061156,0.441751687520449,0.683704086258695,15.744
0.877713322273851,0.430016800894267,0.763081734962284,0.504579702852145,0.0865619665038869,0.768459470433958,15.76
0.811252312122964,0.631245756266619,0.265347021931725,0.271704877233016,0.885493054357882,0.733298049135948,15.776
0.151340145477264,0.712107561134478,0.659189747105736,0.307601708649442,0.0617948940365192,0.0518239151444707,15.792
0.22365424385714,0.213814784360707,0.0580996663722816,0.831113064107795,0.365322174412105,0.476048707168816,15.808
0.426810281532499,0.786281212742227,0.985312576552027,0.347108234478622,0.0878487586220823,0.0906326150647058,15.824
0.975615777403275,0.633963386637331,0.554504562586603,0.201023024225733,0.707350815722799,0.969567881759126,15.84
0.912516392070837,0.742924675141667,0.700943202880109,0.820908694005583,0.503506738917169,0.117177052443876,15.856
0.1418733409162,0.835278044652177,0.893412699398502,0.578283297113545,0.118436730027222,0.813180023556129,15.872
0.384501727439085,0.649530131965966,0.385902489412289,0.5507486636206,0.698809193698979,0.736206995030846,15.888
0.526141415604984,0.208001428848877,0.0809475846918487,0.518404970801079,0.132975580931218,0.277186788285504,15.904
0.586665833455037,0.169739071915915,0.755306134451564,0.834031724359516,0.217820807113761,0.790227921692012,15.92
0.885113490439635,0.0230802302768166,0.544470800399623,0.416616844079043,0.964068926084796,0.196018457501428,15.936
0.312702354194046,0.390586560864745,0.411133815414231,0.256811205380749,0.361693326758287,0.140962889495878,15.952
0.514168332454682,0.711210374473016,0.329870709537655,0.0285893711171409,0.110583652691213,0.450173122240052,15.968
0.757772755409191,0.788952574137093,0.576232209972805,0.270309804167981,0.423850289257494,0.333741457853437,15.984
0.520545963696656,0.403287161146442,0.749950356596546,0.902323546582287,0.850670402605958,0.523573644043227,16
0.70687075026564,0.955354906180737,0.715154892903664,0.948562430866762,0.812661930561489,0.855581053863153,16.016
0.212681480229311,0.0464754318939111,0.939178446339853,0.62586208680123,0.617485153889958,0.979691391390974,16.032
0.159403131033317,0.430079185168161,0.223460730627705,0.542306716526447,0.118258806138248,0.957699346682233,16.048
0.645336174357649,0.272407128650294,0.124920033638155,0.0473206737378199,0.787575591737514,0.92559088798152,16.064
0.0650439234096944,0.632407819069608,0.443226693921983,0.529287621339635,0.940451685540452,0.133585970511168,16.08
0.811582262040564,0.68504066110425,0.967661153537228,0.946711197410604,0.506411846768368,0.285570647210399,16.096
0.971838854212884,0.169188172652841,0.868141852560764,0.350121997792641,0.91237667834027,0.105776483787567,16.112
0.447479225689339,0.0890722047213217,0.813151062471886,0.308213117971816,0.574680128409309,0.541832918041913,16.128
0.925074428013438,0.0969020854717032,0.678511656142533,0.451606153047607,0.120985141980738,0.267431218438707,16.144
0.094305658123207,0.441347116456082,0.0281641584537751,0.999200222857266,0.367262527744575,0.559580749312069,16.16
0.436737446569521,0.753024919600187,0.433253516557883,0.961308557472141,0.507634591043372,0.148586773464446,16.176
0.386189939703035,0.716253884266396,0.123311544967571,0.656257336466479,0.34119004230194,0.0554454998368988,16.192
0.842035849472317,0.609589966802536,0.994968708897231,0.541522540167421,0.180204281361387,0.674596490220891,16.208
0.672891260497249,0.749310943977517,0.862386655031875,0.511762161182513,0.48554210761029,0.87650181851747,16.224
0.177547703327206,0.786148947308237,0.725759369260079,0.23106542184119,0.982636861335245,0.234583981332762,16.24
0.779671797030766,0.578385265437534,0.598433740075444,0.576616517844755,0.67896876496092,0.0668972972603659,16.256
0.714743413868519,0.301298322831151,0.542933158666141,0.00420609487255708,0.00476978359690372,0.594322988480534,16.272
0.523642234044362,0.853812353962785,0.814295253816279,0.690611240655229,0.640825103022424,0.783825694429498,16.288
0.0362935998455204,0.575476544852579,0.125071658234821,0.668071879970961,0.842276267205449,0.721355895642503,16.304
0.984713351669738,0.750462663817195,0.901918447220997,0.0968164347750123,0.843237138952132,0.423056310009966,16.32
0.249652491298292,0.743982997329926,0.84094294109056,0.112683932527424,0.713451063412103,0.976149134835011,16.336
0.244237221326588,0.615697308113585,0.81753210910875,0.704315517777748,0.733892480073384,0.00708891843939286,16.352
0.040211692594607,0.814022017680856,0.515327648424005,0.148330777790668,0.84940885624848,0.984834901227854,16.368
0.475310869585193,0.261273006622398,0.424748350621155,0.365441405459776,0.680765719383531,0.789802575103705,16.384
0.446123624888053,0.885949195187641,0.182026223012147,0.458395925713235,0.465734072474883,0.55863721350348,16.4
0.420051992468892,0.604404431808939,0.30501709086619,0.961676039538092,0.276209548363009,0.240048603089775,16.416
0.959342696430006,0.406291985444215,0.463713961196051,0.572733228760227,0.172266676612086,0.941272113661188,16.432
0.520200292113526,0.24822298593315,0.00221904812461937,0.981139246156321,0.460910652253042,0.811397432960488,16.448
0.220940301388668,0.995561442230094,0.0306524661461188,0.711245587071265,0.386068777259461,0.137711554949371,16.464
0.499697006755962,0.302901632254757,0.753395791416336,0.841860559709172,0.339801956433719,0.448087744899764,16.48
0.879062242950405,0.835980295817873,0.2603502222175,0.52078301792939,0.568511113743036,0.15845234139325,16.496
0.63680521399311,0.0379745984180613,0.677377675493165,0.683623706507881,0.755214440483441,0.781502395551369,16.512
0.889131112226194,0.0197714312065091,0.721538088898204,0.390228862105142,0.977481342527926,0.779147311207228,16.528
0.291827830876695,0.702688533542234,0.422079655969158,0.868936055462874,0.372380765899421,0.489251484046737,16.544
0.607054823126484,0.555765821927948,0.0459959141931848,0.211508540404127,0.689614159811496,0.0288266574447954,16.56
0.921463627746487,0.354221060927812,0.57255693794741,0.914197391814135,0.897391594598688,0.248667539375238,16.576
0.683965734944864,0.856770133717936,0.694538461032047,0.95563995463203,0.242971236657546,0.658680214285028,16.592
0.182664934161956,0.0565264801723242,0.692355993460253,0.308214467479147,0.978469086181658,0.532637810090425,16.608
0.0631190248189413,0.640593836083799,0.355834022590194,0.66673683935673,0.786541256834867,0.921973291584812,16.624
0.295944789963858,0.917269372123375,0.417470766213706,0.173864813741823,0.197584322136343,0.242403585985911,16.64
