Accel_X,Accel_Y,Accel_Z,Gyro_X,Gyro_Y,Gyro_Z,Time
0.853966518799518,0.594795693012712,0.299492675544132,0.774812742481227,0.885081589967562,0.444180066719493,0
0.78255008974685,0.688338036369038,0.970615301856377,0.29111319794046,0.10359312561549,0.438683471469847,0.016
0.321970315976818,0.593648297685715,0.804666265333467,0.655673770690108,0.300104184700205,0.904218400602893,0.032
0.202116010928001,0.568416851348621,0.395825437641865,0.290439192545336,0.77766214577403,0.477478387196441,0.048
0.0894754560886252,0.960587094214547,0.372230079399212,0.0629366876006533,0.212028572933563,0.706645419447179,0.064
0.524915350780986,0.564634982334547,0.718932485625365,0.0358659932203147,0.278999672794535,0.747460615983097,0.08
0.646736350208371,0.487416969682032,0.960961225610246,0.688285948543289,0.793719580939046,0.311429065780177,0.096
0.187560980137549,0.645848555558681,0.936660765679547,0.962462177579302,0.490573152462704,0.510713170180365,0.112
0.862809955137853,0.457301937279626,0.878340909179552,0.752957164837304,0.142499393985333,0.0779412079169104,0.128
0.760704846919827,0.628608192820859,0.95986965564079,0.392997888533267,0.260342423796235,0.208400711377285,0.144
0.762273258415984,0.591869170929769,0.940652658472617,0.573720447562875,0.890145253263768,0.540623385562191,0.16
0.754420621977889,0.0381957217479083,0.00915552471929382,0.531794506856737,0.285760220344465,0.654890728650971,0.176
0.728965812309558,0.0769095173359953,0.226104028021891,0.43206522905334,0.475279032515673,0.545263433922136,0.192
0.629694360080497,0.0583012012265908,0.173821709050368,0.395203757961855,0.107089416765218,0.225151383456425,0.208
0.00425908824810128,0.429668086082122,0.0538221848930057,0.200884635573081,0.40582077866401,0.495216599722495,0.224
0.0669723008247799,0.771127538536959,0.508376574340656,0.970357864237818,0.971025795311085,0.0437576615605636,0.24
0.0555252736164503,0.516646367103108,0.806859730530971,0.00646205037750436,0.888185287490761,0.552166402669846,0.256
0.828229781400353,0.133327872749248,0.0748588842003752,0.103728441110831,0.693771817314625,0.339772172749822,0.272
0.276150527977537,0.67089389024967,0.298220158808435,0.912562824469312,0.0635750098967025,0.568816401426465,0.288
0.809195428198153,0.00573403413198981,0.313443795147021,0.258692081377123,0.111473817881166,0.746058303124239,0.304
0.819225866652497,0.751490590395981,0.466390458663598,0.303198886959346,0.409537618535997,0.215486319465614,0.32
0.729363683465328,0.694247226610686,0.331498483468219,0.811539863203334,0.70919394788913,0.815680603842539,0.336
0.708047511348208,0.83918495027998,0.0524671765057838,0.583669095998326,0.336588821019776,0.788641213626384,0.352
0.0790235843689003,0.586703786142954,0.569676684769706,0.186735284751532,0.816606531422052,0.420220899173536,0.368
0.342614175831496,0.680942596250621,0.492263815015221,0.349875162512034,0.312121974343226,0.538398589163513,0.384
0.0801512558881313,0.600599104667379,0.876112264308792,0.698659572031313,0.888564261401415,0.624287371778557,0.4
0.839879703096941,0.0971580754172237,0.805939224628533,0.789277483788671,0.778770591641316,0.873338807033501,0.416
0.559812263563595,0.847000514404097,0.32847681729307,0.0198840495331735,0.383709042248712,0.205453376296978,0.432
0.722183216871122,0.220169724308334,0.487650493649638,0.80200814970498,0.0723316092720387,0.618024744513373,0.448
0.137014851442361,0.877847701337625,0.234443919245337,0.105516975987936,0.789518116041219,0.319151874265075,0.464
0.257211647524104,0.309861931249256,0.732605789575566,0.0344761238821297,0.158293675350049,0.759215819911953,0.48
0.951633735531372,0.472288984158505,0.575071418155899,0.89225147242559,0.58293215362698,0.823506200930811,0.496
0.710918686687305,0.173840288751435,0.365614765611218,0.930983841810962,0.783522121932547,0.0587457791097439,0.512
0.969582818634694,0.184215522076431,0.569710280249152,0.476602721656142,0.445620230305001,0.238974866405763,0.528
0.13347527478439,0.26910478815671,0.627962340662359,0.969968279396201,0.268789140480105,0.863477352619104,0.544
0.155905111232072,0.856026705619447,0.275292590868779,0.1778761434704,0.248345998970287,0.428491360820458,0.56
0.28085637704333,0.627155899208425,0.512482160035732,0.38866980696131,0.270787963152661,0.53783967325564,0.576
0.0154830648039688,0.206310701492686,0.311840474970764,0.511460227148552,0.42161353706027,0.143165799649974,0.592
0.896812866154065,0.512297679396973,0.576919357690996,0.998990977259886,0.0586632663336468,0.818162099217591,0.608
0.0891030193149837,0.209241390471057,0.629801764807593,0.87777750982034,0.131368651820836,0.601000711576572,0.624
0.107271447993995,0.103899729420548,0.297406057096233,0.0259148593650481,0.880177123934529,0.759834476637442,0.64
0.152682391242174,0.351525035941358,0.536063488516486,0.150022924309868,0.38243822239265,0.764342943980492,0.656
0.878205480418492,0.7465081819797,0.773585502282283,0.275569080679828,0.57899143359274,0.517173078338644,0.672
0.315945475071676,0.164846616601977,0.32514376016517,0.988118426434151,0.385472547145548,0.292698756032259,0.688
0.508477872592967,0.929486162456688,0.696513833829681,0.279202910259215,0.578814785853894,0.581101183432109,0.704
0.576741159567098,0.706782654895213,0.590362863465856,0.988570907052688,0.455757717977788,0.954802980963903,0.72
0.306088381503013,0.416339671321504,0.0914275468532429,0.0553538275648756,0.865446068638561,0.273375373571624,0.736
0.847419004503581,0.937604799092391,0.503988541753756,0.940602619728313,0.520983291264478,0.340374864910507,0.752
0.673627887612186,0.861140988788339,0.376116013247394,0.760522312078586,0.568713726209057,0.301497240612422,0.768
0.767409929757435,0.710471748059339,0.595940719922627,0.845496685001298,0.634115508674377,0.375491184500016,0.784
0.899062616699243,0.366706892653581,0.400505789558715,0.637078602077484,0.338218756613061,0.478977898885353,0.8
0.808479890466739,0.86752132162314,0.303652106053891,0.361809734195546,0.161430474013575,0.978144431617965,0.816
0.825324221791531,0.961941958841568,0.373729713295847,0.107400682234738,0.24130759863466,0.760020777899098,0.832
0.303414433498487,0.562799252225039,0.231348624171654,0.913810788243311,0.891944369746296,0.912737633153118,0.848
0.713786428460221,0.355451449176505,0.723542812430227,0.500582452434261,0.23316023951422,0.813048283593181,0.864
0.255246452916292,0.744790928136406,0.26821532133749,0.577229913500386,0.552180969156694,0.650419632646913,0.88
0.201921337071342,0.926911820702808,0.523621178682099,0.887215802309142,0.640225744251757,0.178737087973452,0.896
0.048022257267456,0.411358780651825,0.294920132447064,0.342028611926349,0.494112986623395,0.405948898388799,0.912
0.0163642284056015,0.227678922774703,0.0604462862770023,0.4660882299296,0.108834807595342,0.723878313574044,0.928
0.36425940590483,0.107932759296797,0.0618749939004939,0.825545363902927,0.542275978826243,0.637623251189145,0.944
0.71726111656539,0.84485120183534,0.0193826266960633,0.917556473982976,0.175117398678459,0.834821868169813,0.96
0.768341802682339,0.367983813154856,0.652708338836255,0.730065705920748,0.547327581590596,0.256685752524831,0.976
0.847965642758996,0.449307170841878,0.823411722313046,0.911346791900897,0.458545957554396,0.405326772609203,0.992
0.161031515079293,0.733872890337195,0.948376328780038,0.449387148107753,0.488254966474195,0.636797532396199,1.008
0.0596955546995874,0.208282144958868,0.507089004346264,0.987249073925463,0.752636591776078,0.193711704538016,1.024
0.236484907089737,0.386744794511242,0.0640006402775943,0.481755077627362,0.226230065902312,0.597237485560573,1.04
0.342727527340114,0.297314823302915,0.477779734050231,0.154041630100096,0.555769432590854,0.171513750445222,1.056
0.94994661526944,0.664038745585017,0.667594957715238,0.109236239455136,0.275747525600981,0.143700762437937,1.072
0.511838057181874,0.414886545451878,0.252369445355888,0.225165576005223,0.902380081797468,0.339548695443164,1.088
0.260818525312691,0.0194218934628962,0.955239155748905,0.952466196716105,0.658493927891103,0.671550607955349,1.104
0.244864443273977,0.176945043748504,0.661257859743498,0.405811436446043,0.927074147198377,0.313423425475834,1.12
0.372462394379954,0.0535895808915295,0.55591710554806,0.736700145392251,0.188191406479154,0.0502112549762046,1.136
0.168713165831425,0.575455285184249,0.359407367291791,0.208317165845654,0.688805735268305,0.845917447892249,1.152
0.18521960687887,0.193334458076581,0.129632664584401,0.565643752798718,0.10213898210127,0.70436879396158,1.168
0.147659195345359,0.365081290350806,0.898592272982671,0.435204693639232,0.451535645883896,0.627477679386331,1.184
0.925220110243048,0.611950540146129,0.515637230806941,0.176790848281983,0.523102266451066,0.691845891317129,1.2
0.643659804832268,0.549368089741772,0.0532842995871753,0.368056658717277,0.546376142204164,0.699252041445009,1.216
0.238870166999515,0.236687504193968,0.95108760362112,0.154271398074463,0.0838405718393416,0.521199400323749,1.232
0.222809453085204,0.303513379785199,0.901434119767223,0.786395231197037,0.7847726608967,0.282704053549732,1.248
0.978996719893181,0.96051096881255,0.192829626855069,0.82960139342799,0.388113032140551,0.985027123230556,1.264
0.583144593097834,0.875950327103438,0.21148054880299,0.00129390502009796,0.560654469439161,0.635807292382596,1.28
0.446009403995489,0.575511920838686,0.158821816655694,0.384023793219723,0.138427698538265,0.028484086240984,1.296
0.693916570580193,0.514408429900863,0.927704796509217,0.631162349467982,0.509885845080412,0.144375751624514,1.312
0.399935691614519,0.225814554770752,0.940707719681544,0.675247338401522,0.588241962691504,0.379322648424294,1.328
0.0624463787102734,0.520715253924318,0.441572708156237,0.82287889159234,0.683079849253564,0.514024742786719,1.344
0.275971621799227,0.84274205049898,0.713663699540438,0.925428951946152,0.701996466131974,0.59790245701007,1.36
0.19245297652845,0.128258000050837,0.156380757745711,0.38649557112666,0.857521131032212,0.233333931890479,1.376
0.785736107915634,0.637127947109481,0.824499148704062,0.942309374887177,0.536704465253156,0.836500946967015,1.392
0.978617465757663,0.848783743427255,0.188854108755738,0.774729031286662,0.400539284443505,0.0431556061840856,1.408
0.363895428739992,0.377674965445721,0.777010705748401,0.119516348576629,0.741526387263937,0.956152863180009,1.424
0.288376899001519,0.814542481762572,0.755126135206607,0.285744017383145,0.496420885146869,0.122331445318216,1.44
0.656513220212927,0.955533920168254,0.855830690960082,0.665759849249107,0.86486064411967,0.865797821632778,1.456
0.915562918028727,0.285937343439185,0.57276272954873,0.657968178013535,0.380739513067397,0.614582179158685,1.472
0.874756407991268,0.386321782287564,0.882325760544739,0.767244211557198,0.445989186455025,0.216999733931773,1.488
0.0295528568123316,0.00322541553586475,0.802225876317211,0.00619079748361828,0.0888217609015273,0.831190925698229,1.504
0.412476253734247,0.60068930566273,0.385872561808667,0.668295731355639,0.230150336223235,0.484631287265426,1.52
0.919137248555049,0.439580982592445,0.0137719596080887,0.56368771700927,0.558549099577751,0.332160959968317,1.536
0.233124952930079,0.894038497385455,0.116045211428381,0.406453617315043,0.656153813852621,0.955959692625406,1.552
0.995624074197042,0.253264050083262,0.0880003226126458,0.870861210465633,0.0478715615774078,0.462267966507717,1.568
0.839714951286431,0.326956037294137,0.235328735344606,0.564137219394908,0.751592259761248,0.196416972666906,1.584
0.510626596071841,0.179274661581488,0.370140935030622,0.401107557388118,0.219850078351302,0.130603514812042,1.6
0.863048112059391,0.560241198869992,0.21259390256137,0.135553760235415,0.880469030206051,0.279311179467076,1.616
0.146551826152277,0.814361175159895,0.262565322368496,0.248824397841677,0.939449246082059,0.627885451756691,1.632
0.663629406788991,0.504713504323659,0.62729910587044,0.0672831236934677,0.491540278760727,0.501249794231275,1.648
0.57038130574398,0.336895879805002,0.298133066943789,0.0813590209696625,0.581925071869075,0.767136002716849,1.664
0.0874189988889709,0.44574375147248,0.5064576824457,0.669803711721227,0.968044640379797,0.542768814615678,1.68
0.460297438551689,0.357706470252434,0.33081313164129,0.929600638424008,0.801669054769576,0.14834884170318,1.696
0.396797470338404,0.291029377884717,0.0457415023991903,0.771711089042055,0.294764789795981,0.933470739648396,1.712
0.466907980314165,0.679514391794003,0.21557668216336,0.984279525913268,0.436259840419649,0.277674341923672,1.728
0.543285431120877,0.124747456604174,0.435782972836124,0.922134921057736,0.945579594755469,0.91326829791768,1.744
0.225466137164836,0.836770379525228,0.700739157936392,0.928864186893737,0.481692990451544,0.0532690297300039,1.76
0.0892924329519384,0.804157187908647,0.375779223337809,0.944758451888545,0.986239821755364,0.662166434756473,1.776
0.212047731595825,0.00299799060344341,0.505446759466041,0.382038689082607,0.579517953553211,0.546479303399744,1.792
0.376579810258946,0.257013703252959,0.693361512195893,0.820468454551694,0.969408944226217,0.525584374786815,1.808
0.193089553538196,0.867242323182709,0.30019682891705,0.506106571944837,0.215167485042543,0.275725259556771,1.824
0.407878900869577,0.413867346366454,0.376409948992337,0.210080252921929,0.909861578237021,0.458705634718707,1.84
0.486394102955673,0.407760544924802,0.944716755455198,0.0904157962823545,0.998347748315167,0.264925781008298,1.856
0.127374189310038,0.325633251326035,0.646985146563938,0.264988325854231,0.318981309498709,0.36171369898496,1.872
0.789605763469306,0.213257599455357,0.521652195164027,0.513222471256753,0.766266265566046,0.632639628486713,1.888
0.97982177310537,0.0874994399267729,0.530174198978099,0.509629711901361,0.106450375431013,0.822156560503167,1.904
0.558175763736721,0.934262813614879,0.29413547979162,0.593211527861179,0.466555714589562,0.759728199200974,1.92
0.964598524567738,0.493585314334013,0.680722683442455,0.426608675934434,0.672024106751233,0.216864284219372,1.936
0.524997029869622,0.772650657276869,0.582163965991732,0.486560888199774,0.345683120597966,0.449482215973759,1.952
0.0260521456710811,0.260480055183986,0.473306419767176,0.219869737918516,0.930082138139771,0.861987923394122,1.968
0.495684679097111,0.245004851071374,0.499994239453989,0.271512600536889,0.873649161952535,0.894695169967274,1.984
0.136380613946225,0.588602461652109,0.029432631533006,0.0588381979667113,0.465320334926315,0.199635094766662,2
0.490497784642964,0.907317801751532,0.547798493170169,0.487739200514736,0.539402102888652,0.808461109397683,2.016
0.764047806125398,0.100703838785067,0.450230360334229,0.691047242362881,0.964152318427977,0.797433866782051,2.032
0.463912366595564,0.983972968830674,0.70828193640335,0.115232989331228,0.0230981448677052,0.695475264611387,2.048
0.39842829118987,0.522753589471903,0.299553988130595,0.87789548957416,0.787539623775835,0.661082776715883,2.064
0.164594951907066,0.892995243610534,0.140855451728506,0.531054734048551,0.120148272322942,0.497118094375935,2.08
0.865660474561697,0.414936552341419,0.329117801798826,0.0725601884756721,0.914510047792959,0.95205127014228,2.096
0.464296841697624,0.260833754183474,0.610495920154433,0.815121819698784,0.0241515620288542,0.227027537565783,2.112
0.588727178685728,0.455024995119871,0.293979635546855,0.787337062678651,0.00705193228989576,0.293753028976984,2.128
0.688583930855902,0.685111398571902,0.285702665912963,0.0807689034360016,0.497422332815829,0.236934441744399,2.144
0.0558975981208401,0.201128782606259,0.470067060542425,0.857776697130094,0.810569935163734,0.332248325227459,2.16
0.301026738975451,0.885872249125763,0.378925948793648,0.754659253957785,0.507333494516217,0.447417457496391,2.176
0.829703950927067,0.661617869922487,0.372362464803666,0.137404367252071,0.690393391273688,0.899764697921062,2.192
0.252188017714655,0.541420553117277,0.193106763123453,0.297200440200951,0.558383142609061,0.649291171674815,2.208
0.282607493689501,0.170351518340574,0.690338974782545,0.309404221038441,0.848298458057303,0.606237339901187,2.224
0.825877085374422,0.298618142761501,0.0353808488129965,0.760852197483111,0.254759678888194,0.668802295885532,2.24
0.0905321004538069,0.0914495708831435,0.190977801644491,0.0681060708898453,0.219408903149316,0.638668043415141,2.256
0.131628508040547,0.537646409907915,0.345101293797072,0.386387805796285,0.595601532391166,0.518343180914074,2.272
0.614730788102193,0.054562754023306,0.714444606683701,0.330717089658779,0.411079115068843,0.470718579367763,2.288
0.54616990367218,0.126068252418052,0.798285381724764,0.516045971309393,0.591161844213398,0.0121781325015962,2.304
0.165304410170828,0.129514308956156,0.491823437432331,0.556202823347043,0.838943359272688,0.700239977334707,2.32
0.130039622472261,0.401128411033442,0.726315722626986,0.52441263943122,0.199773832722064,0.203304715990082,2.336
0.508020164054726,0.869434138422617,0.993054235902998,0.0388400482752622,0.460738891510537,0.470173651879754,2.352
0.846102063895981,0.899154265131048,0.0102711461177029,0.524380285547702,0.303278384592364,0.873341143017157,2.368
0.0166388665274104,0.56494992297792,0.356208961622446,0.729179140825145,0.57714593708563,0.964522630356118,2.384
0.156112457703422,0.0529861813130043,0.0427956510076949,0.330560450258987,0.706405988684338,0.0745256770007804,2.4
0.324937612139472,0.784431169847781,0.91800360913394,0.227098745588968,0.690240828986142,0.61751941424338,2.416
0.953503843465838,0.0986718451570475,0.0861632233502719,0.598434335981005,0.737683482647458,0.797346552550492,2.432
0.787566086310105,0.839382496572143,0.0395197074747482,0.484584178026179,0.0125910790739407,0.554459330502608,2.448
0.24681459776275,0.588518667298954,0.645519999150156,0.773265875498618,0.611849873794088,0.247733897529708,2.464
0.550450896515574,0.763548855447646,0.21596165600598,0.136934334069245,0.0700805422003278,0.721286327703874,2.48
0.591910858269759,0.797112112092224,0.935001386691513,0.488480433087707,0.254256438009828,0.0422281985440732,2.496
0.540279518300601,0.965677325959629,0.265063044373425,0.0880192037676253,0.492884064601991,0.660566301126719,2.512
0.820575093790552,0.643119430140817,0.815678197810496,0.502102749996779,0.271264540894621,0.0731331126012159,2.528
0.0372477582159145,0.464087666867818,0.00377706318342463,0.388392271368285,0.563148369462458,0.254775529566667,2.544
0.44203493880292,0.0243845656438406,0.833058156890343,0.719825161671491,0.000116036295136901,0.832342072291581,2.56
0.191141874928603,0.841321254822822,0.0299065606783107,0.634858347152902,0.219102205909535,0.983591371907538,2.576
0.657298064206957,0.969757764570132,0.218511488389613,0.384970042295852,0.568364016945515,0.454902973745557,2.592
0.328238698911051,0.963783826216198,0.47815652581661,0.557867347712453,0.524601253912772,0.479177786751438,2.608
0.16694879286812,0.0674778231979771,0.654841583889743,0.803974508661127,0.966864284970975,0.28891747955861,2.624
0.959699070555145,0.929490636126465,0.125201710436894,0.925435538211575,0.400767378817456,0.638942025073459,2.64
0.756253259007561,0.994605001361797,0.56502009568777,0.728516517913049,0.291680258793124,0.847586974928828,2.656
0.248347761982379,0.0749045021535319,0.211548829404986,0.0639558534231287,0.351803497011868,0.521670162436725,2.672
0.670005948725092,0.872015702846112,0.748625923044839,0.891266902914606,0.379396073534893,0.351699940422751,2.688
0.202003874835916,0.172523651515564,0.101695233144514,0.621552572053114,0.0573358185941668,0.429414089165782,2.704
0.87885828923008,0.420883912188471,0.675080100769064,0.159387090663702,0.131602943989034,0.354042723455331,2.72
0.48907525594213,0.0375458862690079,0.952054287412963,0.792458955429184,0.628713296755218,0.479747274479374,2.736
0.0936008489944224,0.092561913314413,0.358418811127693,0.59096698290775,0.156654933348276,0.993438641231801,2.752
0.404090828979485,0.946479650403936,0.642383660323029,0.467019980069535,0.133246416375369,0.76418549685179,2.768
0.101026938166655,0.114456422934995,0.912283585486309,0.602201034025274,0.100412130320246,0.683795069300364,2.784
0.667859718198359,0.893626449319558,0.977773009147948,0.832012090313187,0.501735781855975,0.897384847255417,2.8
0.309076652472626,0.401460194226693,0.442426827123821,0.573688155250237,0.374868092029236,0.184851632652593,2.816
0.204083131674343,0.701075473023816,0.583922562816829,0.479471341695396,0.474094295086853,0.916910288322319,2.832
0.799923524197072,0.746422634548719,0.638233163589538,0.306993523165869,0.773411560531398,0.0584950008716882,2.848
0.267023531354754,0.491348778188539,0.525179858277331,0.411264011765806,0.193326970009076,0.663999754086671,2.864
0.286654815923545,0.0102862275189589,0.252668297165942,0.256452173372935,0.807692004342612,0.191797853240258,2.88
0.202779980805633,0.668181001649246,0.449418763220606,0.998864044252933,0.224411447835515,0.480958479105441,2.896
0.87020999577733,0.0622526625871619,0.40507063534387,0.655368269692704,0.589498718537876,0.793520624891345,2.912
0.677939337035304,0.102143401799582,0.807814085455637,0.692622898228337,0.267604940608163,0.263114792827568,2.928
0.0973774319597838,0.0550781394495011,0.0433463159221111,0.488212072718077,0.199038365677012,0.62662287459111,2.944
0.287356879211907,0.262854692201542,0.206778036525022,0.132778862210268,0.16970222109793,0.0182298639666006,2.96
0.902649497590867,0.655603053768866,0.878557028768604,0.842697397548463,0.223936002323911,0.718426502186047,2.976
0.938093459748031,0.948197002377785,0.341451779002884,0.456430799539197,0.785895231399635,0.722899583609108,2.992
0.732946823682896,0.664370283909438,0.183358476476804,0.279875300956008,0.0898009670046103,0.0236101293008008,3.008
0.532243362293223,0.84559632112428,0.827293379544365,0.311523481701416,0.182050632190811,0.148185600794043,3.024
0.170135630176077,0.861205513275457,0.302427435557504,0.630533624942507,0.911489509289868,0.330194897925424,3.04
0.849794652946117,0.77865547480166,0.657336033865279,0.332002283964809,0.672041907589126,0.920586602887678,3.056
0.719591957380937,0.844768822898813,0.986915731322196,0.928040672298257,0.955783875065332,0.0568717046756765,3.072
0.792553851005388,0.288896753277735,0.616466315420452,0.931624045483613,0.0601329509371955,0.662007503935906,3.088
0.224452905091239,0.492662947221645,0.751387545465153,0.785392077922513,0.22895117731505,0.990305464341935,3.104
0.246419668827664,0.582173007648431,0.243607114731497,0.613519921058379,0.479045884585096,0.166991352061025,3.12
0.682945943671362,0.600333688253973,0.0859622205553686,0.302997132115822,0.459561506576351,0.182819704224553,3.136
0.390873517522121,0.168528898478643,0.600701891617493,0.126117162535262,0.913914047592522,0.528015196699222,3.152
0.266084617284559,0.885001634887647,0.879282667234669,0.609960286500737,0.245238461369548,0.563256294350768,3.168
0.494437020317633,0.418022653121149,0.635106049041375,0.842815545832857,0.0820982685575102,0.837832872375885,3.184
0.176035341237376,0.479985727413187,0.914941528468753,0.63481754623308,0.440567518477317,0.482109091493921,3.2
0.574566539568364,0.961565144554038,0.574125029107851,0.587800775653659,0.705971861776001,0.449569494744544,3.216
0.149312759106758,0.720261936423292,0.150703935190595,0.587895900335337,0.162126014341529,0.780049946060604,3.232
0.645076305446524,0.418753342257887,0.0481574611438413,0.87148580524895,0.769842090932215,0.394516168297193,3.248
0.782916802551909,0.254035192871384,0.725055743272942,0.265911602840767,0.337232833000929,0.449684729554202,3.264
0.787701286132353,0.501609621314169,0.749323606699391,0.690952724969027,0.707165002316146,0.755486891073038,3.28
0.595171214969874,0.722667489743855,0.893912129225727,0.788401024185791,0.396342319153894,0.84505595186225,3.296
0.982551780603104,0.149048709711809,0.680289017796644,0.433658179811709,0.149708172626533,0.432124218934136,3.312
0.922956246092739,0.956165702410342,0.44359336031138,0.247602516261941,0.0636699922598987,0.182722271731667,3.328
0.606651961551392,0.81765534971819,0.69565986789266,0.0519317255464345,0.332186616257466,0.710817406117982,3.344
0.719324459982264,0.516123374169194,0.49334101955003,0.274085248474593,0.618941265177183,0.504027391763514,3.36
0.0708573892175619,0.950157791919823,0.717038150693192,0.837135521863247,0.435381680276732,0.855706826218853,3.376
0.83120260240593,0.722660139987486,0.383766694277152,0.186926987138663,0.692348208821078,0.0833383174442784,3.392
0.230093093123167,0.9675479366095,0.365767378551023,0.365744524652194,0.172528742244214,0.57444604184967,3.408
0.281127238234579,0.447207134273443,0.92206837819502,0.959798385732087,0.310595369529667,0.240922247700843,3.424
0.701624502019184,0.516167952304367,0.196400609701712,0.0784276814304713,0.751180608771605,0.64387623988903,3.44
0.00776161413845988,0.441189917820072,0.244116278194481,0.745976155297576,0.619543803724191,0.446252830803981,3.456
0.822985608009813,0.505203165956624,0.966400471317411,0.289951810137989,0.125824134047047,0.239323894226801,3.472
0.248652279262638,0.198042560197068,0.814779816783124,0.184617521119998,0.799238073132043,0.515698542381053,3.488
0.632774601640739,0.146417760290479,0.888560434490317,0.357813684902165,0.757155339094303,0.11716675946902,3.504
0.3659487294369,0.54085413530527,0.768227455171073,0.260288707373701,0.161613007274566,0.446800699390253,3.52
0.291425038844234,0.0702461491048966,0.247451831849297,0.252544615101158,0.647323858219963,0.51787172807341,3.536
0.202969533313194,0.662819291589922,0.766406092112287,0.879150691636505,0.532306281222883,0.441923336073842,3.552
0.295178914984779,0.000585730847409427,0.186120634588425,0.458450049693241,0.629025153406398,0.65139654606045,3.568
0.772782205541187,0.760606185733978,0.945968714211215,0.0925817730505903,0.28793304293489,0.628922345884998,3.584
0.0925411940902363,0.479539080810773,0.478370948319715,0.512043064849531,0.177366556152412,0.216079423504233,3.6
0.917384869777807,0.960763570658796,0.11581701417614,0.836267132235216,0.178613160289645,0.29874204533232,3.616
0.404368559174405,0.0477164547732688,0.0844916549611534,0.178036384611418,0.497341508167566,0.503862231126072,3.632
0.27061571069213,0.890796233090793,0.982074927983259,0.0198691217352994,0.882686162082902,0.134504452178248,3.648
0.0013436135037459,0.953391205607161,0.905529334338154,0.477099654755112,0.570482184103203,0.706695942692841,3.664
0.900253531030731,0.298459588106834,0.670099748383129,0.343965634369561,0.317497958047844,0.751188642339389,3.68
0.93102754370992,0.234174213702004,0.438434586290921,0.0796259840901548,0.00399063253020981,0.0219197345561786,3.696
0.948315139476001,0.450201752983127,0.786257118688586,0.265174102707874,0.187174935946621,0.15595556557548,3.712
0.452022667664338,0.591351998753737,0.419555768016383,0.0929249862329726,0.112073119461323,0.621757729942538,3.728
0.219518363108166,0.15549914700977,0.587561289682589,0.785025097448019,0.357292531515467,0.530612877456984,3.744
0.235059169001897,0.991193544418973,0.270383301359216,0.401319194854167,0.963739332004275,0.904133559584135,3.76
0.341343888707251,0.440995539604048,0.90175767472898,0.119124317410301,0.940491936071236,0.823539337096366,3.776
0.635368006676162,0.540951037553408,0.335806714001525,0.107657114429272,0.597953963689803,0.104791866135013,3.792
0.0126107718553429,0.956575668738875,0.507035219744207,0.863939303355586,0.254079154891753,0.251988811234607,3.808
0.167745836038159,0.369289223687768,0.395518006659501,0.883709843038634,0.0844561867630169,0.31098018836748,3.824
0.592855651635351,0.406446782798905,0.142832533022978,0.505750561058115,0.855583278910801,0.136368020989831,3.84
0.270543741142413,0.510187186859667,0.0597209857358719,0.58266110935565,0.431698535095303,0.982143380401018,3.856
0.855639815737473,0.554065455480677,0.111618530611494,0.444084495088603,0.111861617134505,0.0352750579961071,3.872
0.896434702505021,0.633068737416807,0.140014875015589,0.539269506956163,0.168705187463434,0.52294868905228,3.888
0.338461880192748,0.909345698878457,0.662575518467008,0.526855601053187,0.137017436465738,0.351356355545059,3.904
0.466005022021548,0.53449802493758,0.840507950970474,0.804740492979842,0.296704355303632,0.213472816568974,3.92
0.914673932728368,0.847662359756729,0.906268559355508,0.0425265911231839,0.679587348109395,0.888076626170377,3.936
0.457099562351244,0.840144690468897,0.671007664101244,0.527913128271612,0.45623444893192,0.943250911462663,3.952
0.188462904984273,0.957799387143954,0.0685992150258387,0.346533203372687,0.40620403839107,0.989525512513765,3.968
0.366902976589014,0.899720948716154,0.702044062980215,0.339758466721716,0.248064013077822,0.261242689867531,3.984
0.837805330704455,0.854199611029918,0.921160047779008,0.836388218997333,0.277800282054717,0.578060328176412,4
0.184320267335691,0.363537282325084,0.616450966285004,0.523912713283043,0.833234937264729,0.842542779365096,4.016
0.447889929082657,0.0876048431567735,0.540272436277953,0.300277127838663,0.761725096118385,0.773342261269358,4.032
0.266571547100468,0.497455823331809,0.13619591419881,0.83403349781572,0.103987528867079,0.0863994364962807,4.048
0.991506358856099,0.846852989496702,0.88025425873175,0.998817172423224,0.597417309969443,0.412755712378581,4.064
0.523947597736455,0.366609614073649,0.247299684234078,0.674908603298334,0.751183427484322,0.518855271113799,4.08
0.0160244964882997,0.920884099707121,0.314140651282539,0.0606191063350304,0.505587999680344,0.638699509362573,4.096
0.664898576950112,0.542095501896039,0.945220452182711,0.13133157289547,0.577270355612401,0.484832842727797,4.112
0.84449568409624,0.833963193033572,0.126433245339275,0.378364131678908,0.46691515202179,0.451292828267868,4.128
0.266725822666701,0.897867016074265,0.272220735340078,0.901020854268585,0.809866367153534,0.281808109165789,4.144
0.234596377343969,0.932918099625773,0.0511478540797318,0.389663497485617,0.255361395983073,0.99857461176494,4.16
0.430388818579276,0.201321975461043,0.923563105783208,0.0858470830394883,0.814804191082955,0.643824394038106,4.176
0.546065645313867,0.44440461933858,0.418936328533258,0.450167980317928,0.823298763942078,0.109282139144057,4.192
0.579233191407041,0.765100085770156,0.798221626106463,0.215425985172867,0.140332692384198,0.956812205032796,4.208
0.987323107375569,0.997562129680405,0.0738074627818098,0.72676178001506,0.539232961326641,0.675303771675992,4.224
0.209493119887978,0.442974905400541,0.254371426128053,0.663160753206077,0.444002489468881,0.823070803506428,4.24
0.309453955082585,0.472041272644786,0.231076965762432,0.0179102882310435,0.0997990194668844,0.612815722345637,4.256
0.068788169428398,0.617772590877683,0.958261622252321,0.275550498386443,0.654745820506945,0.281092916597158,4.272
0.604950822910547,0.183009761525306,0.639145444242131,0.273963307635128,0.789493791562014,0.475290810637477,4.288
0.220441624778898,0.295455341148049,0.0534005108717411,0.149956392381857,0.028963139570327,0.913635828694142,4.304
0.290642575458575,0.699109681975908,0.088679561617423,0.655615581519241,0.165763507834929,0.816286267022052,4.32
0.0609958010539191,0.0495997038332268,0.756717862938753,0.369136487225497,0.0776747166450362,0.156830119434325,4.336
0.765525508384503,0.479305610365378,0.974972552979275,0.0435322773587509,0.512547174635025,0.160241169424438,4.352
0.302070415292945,0.9268101276966,0.771049304309887,0.139462496544909,0.726903165121414,0.540514804940335,4.368
0.860933372229879,0.996426295448543,0.0365621581823502,0.685544661663636,0.234818513331795,0.228949648623015,4.384
0.746996756723559,0.0376392996670524,0.114778646996241,0.765950562801493,0.33306444415235,0.934931285801564,4.4
0.586782283226905,0.465773152249439,0.64683598457976,0.74310747005671,0.076094464393713,0.562418408592556,4.416
0.0119512730321013,0.644910272470305,0.111049357973174,0.640753866273063,0.96367680375013,0.214012246839706,4.432
0.191481898985357,0.337460374710833,0.962055960315012,0.175430971092237,0.712702142913571,0.315990974125563,4.448
0.0528716537269344,0.158310925585186,0.0766877132811832,0.400438480729797,0.0573320574437353,0.119564742899533,4.464
0.658058209203207,0.296358364594258,0.27989400395032,0.314987557878417,0.639221919924558,0.259734589831116,4.48
0.562212277265773,0.890015107168979,0.548883419785775,0.990918457023012,0.656525655585033,0.919531503571705,4.496
0.513797717608903,0.62589358697092,0.0797494874013109,0.475676401684643,0.583784751258387,0.533369287000274,4.512
0.439868113285819,0.100356698295454,0.896457721158664,0.212903669476112,0.520723947344135,0.47456467229887,4.528
0.895411329696725,0.290819364545934,0.439331894514751,0.55669384802535,0.291317664990374,0.0989567365421985,4.544
0.684540806823282,0.800267299792875,0.654185336964757,0.253520037268108,0.173662375545522,0.0338734186237495,4.56
0.554764791162961,0.0627480260763763,0.140647074420134,0.189839274388325,0.970469088376271,0.631957172682418,4.576
0.0378606337208409,0.295665243708844,0.743372302591079,0.121229428107353,0.391360270874222,0.461415561793271,4.592
0.308160729248385,0.0736246917354199,0.0914587182834593,0.848477782238541,0.958860172952464,0.439972659062349,4.608
0.334876238699316,0.715816895580375,0.0535603478041992,0.671901753903261,0.537407088041107,0.412178074598964,4.624
0.956672720735851,0.701468794428251,0.564588496797822,0.676694416674085,0.431158437724159,0.551139680219914,4.64
0.404138472661258,0.551604625224682,0.490167323411464,0.538334763770097,0.361206114880626,0.564904227671958,4.656
0.582836330926559,0.1864314565898,0.157423109015164,0.576897008341886,0.738338302097413,0.301461970070759,4.672
0.246903284412617,0.930191276652782,0.306655259229618,0.3187003069599,0.0959041969700585,0.814810037634968,4.688
0.543480901513892,0.997919913897791,0.782250478785321,0.168650830190556,0.396072099960006,0.297192294465936,4.704
0.0247461453740548,0.399933240836162,0.607387011615889,0.916296280161098,0.331373778995111,0.120659883775779,4.72
0.943264081228449,0.816140970882575,0.970551470902197,0.312648458334604,0.36453266395992,0.743514626664097,4.736
0.100116235829359,0.680254980202403,0.962608598532529,0.576391389183331,0.424992371445268,0.136154819757125,4.752
0.072841404641752,0.417025266324605,0.381873527778882,0.727497777943522,0.989200133785876,0.508402847270379,4.768
0.362220818870066,0.406601500395936,0.658046855563933,0.861907611539474,0.725072741367879,0.239286007535977,4.784
0.477208855274112,0.731351475433865,0.217330437559895,0.326924522952414,0.360515005341736,0.572619975829197,4.8
0.152088047774571,0.67097315340052,0.73469865965739,0.491490270936937,0.764075692437818,0.128708497132864,4.816
0.721003133115115,0.894089620628055,0.839881037985713,0.758149025123289,0.155134822554639,0.18378809075576,4.832
0.957372359006587,0.916857567141939,0.00560983177140906,0.512693644662635,0.28938279321362,0.729153378168489,4.848
0.810945120328632,0.19311564348148,0.919346717449777,0.981039283628217,0.0809870603996505,0.29714769157678,4.864
0.674106613680393,0.170575425599958,0.328085795219127,0.59199498589673,0.490259330443092,0.226969215963919,4.88
0.396397958632149,0.236801210342393,0.854243347061705,0.997980196480422,0.332632771674381,0.401603825850154,4.896
0.0740883536665965,0.608528161232952,0.110696382322601,0.395119776367761,0.49493013150162,0.771052661187925,4.912
0.515123423063479,0.258855149003893,0.500132857365114,0.85487312854652,0.988041798042057,0.284427686594286,4.928
0.395827419756811,0.315178088191124,0.310074638556921,0.133426496789023,0.225255525814218,0.708010471189316,4.944
0.267706917866214,0.0191406760419041,0.854438851395941,0.713821257787831,0.867436332932228,0.650783257559184,4.96
0.750641777090118,0.431605161815079,0.999875123058525,0.928740152632699,0.338082248558887,0.0379205538911878,4.976
0.310936009060316,0.432142491627731,0.20400771755741,0.207288007200256,0.351243125629025,0.931812047452745,4.992
0.499359764328505,0.0550998782084478,0.83613185368486,0.851246160014739,0.798648953525042,0.867265698808421,5.008
0.586550414743523,0.497459792468597,0.252396027835197,0.908904169896652,0.073330641035674,0.416988573123492,5.024
0.739582758523668,0.714043545806076,0.730727225303756,0.954416099280012,0.954857509158706,0.0306980216206897,5.04
0.70126475109288,0.608423914269006,0.637301157923344,0.699416999662534,0.875168305219726,0.432512176306689,5.056
0.080491278832978,0.505210868026123,0.887358375070449,0.910655527075517,0.706026788495412,0.781168472647205,5.072
0.86523068254921,0.433335344269365,0.672036628903263,0.60148869081483,0.122263592871044,0.642554957427824,5.088
0.541877213181597,0.414319352723819,0.152089658717207,0.577342320266517,0.545204469525493,0.26292940812349,5.104
0.363372793868939,0.714467798244227,0.446834947077177,0.32433420086287,0.0313906792738273,0.622327725910432,5.12
0.34010762788642,0.159627486979452,0.325195597075874,0.527562255527895,0.440565314198654,0.921007369528829,5.136
0.762929212355186,0.774455118895959,0.934258482914514,0.976581956089626,0.81390321918625,0.0944242024255889,5.152
0.00134458495726852,0.513497376375308,0.0602746987876152,0.380871913367443,0.447721624197595,0.559471195694272,5.168
0.100783113564997,0.0178104116970239,0.218151464108622,0.238605766881858,0.434746419348485,0.274506489677482,5.184
0.931778810452249,0.187735503910582,0.0615748001231684,0.511046302860556,0.907174195284372,0.481589903643092,5.2
0.16176164055662,0.189681921537437,0.0493538422455263,0.181762505375964,0.644104491049591,0.0900659619857752,5.216
0.899291609183444,0.104486006283621,0.506697871875351,0.837016066366966,0.596495067272618,0.290925430313875,5.232
0.973277849308384,0.14711757377078,0.285729047250104,0.262032720202247,0.667862919406576,0.269433791723202,5.248
0.385170652695173,0.0882475876155316,0.0574920577890722,0.387094609093979,0.629250005378584,0.343001167650631,5.264
0.963722332769645,0.302731904443304,0.76416700354081,0.183970356928565,0.172223052003052,0.60699659084381,5.28
0.0739776442226591,0.809942495070736,0.680373843535539,0.7296979752456,0.823469943619543,0.473092507281843,5.296
0.384994554157827,0.536427773492984,0.807386139164673,0.621363338605052,0.955444331819233,0.640703236581913,5.312
0.00964907412619198,0.364565663093903,0.505735889151153,0.69776518920348,0.239902238605162,0.11040554455226,5.328
0.385393113191155,0.953196323232306,0.556762258131355,0.0582801932854969,0.362209981183057,0.590937910163915,5.344
0.884123419620487,0.724952456634775,0.72112766817827,0.037465119700185,0.106762142422388,0.141053899637354,5.36
0.895315734053492,0.978612973735359,0.511663444058882,0.101180856014213,0.745940874143062,0.469236319057125,5.376
0.571510911546371,0.711252122702751,0.958505938278861,0.960824653825,0.458809109362464,0.900801904195695,5.392
0.209794249132283,0.863597896971714,0.51525427302996,0.942039446597567,0.4806034400016,0.589274300234557,5.408
0.893236094660828,0.613837969614633,0.36797057960409,0.953843365557726,0.752035291640028,0.296391470264832,5.424
0.455017890403334,0.396247831427493,0.380622168044607,0.257693487456413,0.495584980823918,0.470989229206078,5.44
0.298133532269743,0.0328340886302484,0.709801417008983,0.467975986391245,0.298732847281054,0.412860797045419,5.456
0.149276029947809,0.54801025949715,0.484502063783758,0.942326404295779,0.622701196695071,0.319889674500944,5.472
0.648679135838757,0.89428762775983,0.999554175528171,0.448232056688163,0.961559285493364,0.510284676856064,5.488
0.190636912848113,0.559235126406338,0.308335528657212,0.251617401157665,0.712290586824966,0.410021397843169,5.504
0.594616440315671,0.623502539594189,0.311485328014639,0.619400421949061,0.347249064713898,0.367644501895313,5.52
0.961769766184747,0.57877532614876,0.017660079670449,0.973724722573504,0.255495179829671,0.0455172659302693,5.536
0.251080675253432,0.0759592564346677,0.506695687915669,0.44387121901786,0.513982017773196,0.290539071688137,5.552
0.832884893458101,0.866204171548445,0.275881979456874,0.647775747101903,0.998250877841586,0.280963542920292,5.568
0.319247334216064,0.714749959116625,0.860008523302556,0.321889632787712,0.474004339640053,0.151109608632068,5.584
0.829639252210587,0.374212767420408,0.776868999370554,0.256876247139716,0.484901710291191,0.709119902410728,5.6
0.419941689644438,0.132527294375257,0.269833479967559,0.388678097169292,0.64576256668245,0.231202426359378,5.616
0.693975347109729,0.563469255439965,0.644151010518715,0.000665302645200927,0.12402675442131,0.47614087377329,5.632
0.220034309580809,0.0215007333876798,0.883416351623995,0.147427219187209,0.961802405515368,0.00495276459331895,5.648
0.436097176898884,0.137866858818892,0.116655384146929,0.875691640708554,0.0291096296923289,0.402175394625761,5.664
0.364655842116982,0.377808960956719,0.94821325223663,0.91160077699825,0.0827360926655457,0.467796323731388,5.68
0.323020670956956,0.381508958418055,0.653047050862486,0.117478175258162,0.561766287520438,0.161625572369398,5.696
0.557192225991009,0.431983248032936,0.786900053327568,0.848515852519211,0.481681331558387,0.226482175795747,5.712
0.0247357239227809,0.960598517789131,0.734951986919012,0.442991138769499,0.517529835236419,0.977588866730788,5.728
0.388307368070948,0.368561545069632,0.231972713482836,0.149874934292414,0.450479695941979,0.285869255521206,5.744
0.400649188341906,0.399564824242681,0.675751575513214,0.0876468119943666,0.663798916473689,0.321718604277053,5.76
0.851451567710066,0.666996816619384,0.0321503957685786,0.0859416260624413,0.570399994865765,0.662801353618887,5.776
0.954653847291647,0.806060848951837,0.132338725519465,0.868376747511996,0.4494214072012,0.00778050322824031,5.792
0.0534805241804128,0.110225298647569,0.839226320868513,0.211985279700556,0.926837207757879,0.912531340284838,5.808
0.673775614832173,0.833450918763668,0.411944320911722,0.121126148832761,0.9401472217428,0.559914373760724,5.824
0.785577604565499,0.722294039301194,0.473715209747024,0.337561949744171,0.843677297906869,0.20924017899667,5.84
0.228712981219924,0.593210925676377,0.398637525809133,0.187394601747918,0.851211840740716,0.0467411804632087,5.856
0.93784920700439,0.460566856921724,0.896500446499736,0.801183614768941,0.358032014736865,0.770722248818765,5.872
0.884675784121893,0.0788965077832898,0.850615230129049,0.162438912691804,0.301543800963121,0.0772861187905272,5.888
0.393520461565996,0.138612892803542,0.399168363428052,0.358608964790159,0.119874329438863,0.472282318144587,5.904
0.627491851590271,0.596606184690583,0.225051046362738,0.801913428764051,0.815082071432926,0.405947632699631,5.92
0.000919012212272752,0.210218207637595,0.95777835748773,0.341393365506592,0.10079807048539,0.718360569366156,5.936
0.535340370749883,0.583706124098591,0.280960741587113,0.317432303399351,0.695866087804763,0.0885438594097647,5.952
0.713221983329088,0.6607454880723,0.680953220568372,0.597276657747506,0.882387466761166,0.256352030746197,5.968
0.620019444832037,0.645721210650801,0.861420378849721,0.48425136966034,0.0498599118724173,0.650738413521334,5.984
0.0841068863111391,0.920014386150205,0.822145570172254,0.305802557132815,0.197297532040781,0.846694938311447,6
0.0758222450035362,0.63349430074271,0.486667117644562,0.566343796935483,0.860218958754427,0.963823798517841,6.016
0.705254793412827,0.53566833363092,0.695818685211714,0.0235013766185246,0.438907720309584,0.338136531628482,6.032
0.790802425596914,0.240101167991118,0.861696625019403,0.477729860316709,0.743302287503343,0.780944985420128,6.048
0.864160338461833,0.222849885146861,0.296123256005388,0.969586102406001,0.26857084065722,0.959989222755669,6.064
0.634956369996114,0.989163743985298,0.11613266416246,0.12188396635591,0.0679460812308305,0.140511292286823,6.08
0.264299010097519,0.934344017445768,0.290468942958029,0.652904087383311,0.82323393882714,0.0970291273546304,6.096
0.396182243053049,0.984331964589619,0.0142672475361597,0.289768296196878,0.0229773245676195,0.550519163130351,6.112
0.395971586626677,0.737363146169376,0.656259229324033,0.245121795063127,0.534753251683776,0.643092695588452,6.128
0.782290951173881,0.506172670790314,0.400313567581656,0.441718195361557,0.350215471459813,0.438828044576188,6.144
0.18102852588201,0.748406864601617,0.3664349851402,0.403310017896027,0.946926338073033,0.990452170160401,6.16
0.391712179190322,0.917353229101955,0.560417474022993,0.675762873216918,0.149391218942514,0.657895645186268,6.176
0.34533256764833,0.545760736483621,0.772878869489592,0.95101940505947,0.778509858803054,0.0987638557007291,6.192
0.713132561935253,0.189371935288776,0.565481329284262,0.120536906868875,0.844783070985404,0.296354181403279,6.208
0.670880771765123,0.993963645416639,0.842562971640816,0.807118427674253,0.369982700553416,0.583338559050135,6.224
0.501395755916339,0.291133937188521,0.770412730156088,0.475462336972351,0.667677995986966,0.824657087805543,6.24
0.146670968829545,0.914135020338985,0.643360186321062,0.775665023617924,0.383693984638047,0.925316192907868,6.256
0.113182997952763,0.923873374908682,0.361223209532199,0.265001261187131,0.804704016957204,0.953118141997229,6.272
0.986917050915187,0.968896993397806,0.101192690283505,0.976902110090421,0.0761976858430204,0.284457735038578,6.288
0.513825798272612,0.835287150366539,0.460532987180115,0.296804885199119,0.746361121046356,0.547720898159558,6.304
0.853772944065286,0.687881429860327,0.146466465003314,0.504110952005501,0.265118058615221,0.0654524148975205,6.32
0.183625324192812,0.0125097077090899,0.332435819856255,0.251843770590692,0.419047314468569,0.334170998411095,6.336
0.895806351870272,0.739896379708961,0.437452250135968,0.703135560483185,0.416113220813466,0.459710868538916,6.352
0.664846792973684,0.305166874287774,0.785974836247135,0.994505929079249,0.882474980831776,0.81286447233146,6.368
0.97762708783337,0.480378063071,0.0312503398402948,0.396111525498131,0.161979565024581,0.779838368961476,6.384
0.863741151136708,0.00902209319529734,0.205119667191865,0.406752510563672,0.791628036390303,0.550223340869546,6.4
0.559578677666908,0.900652376911622,0.231319740876858,0.852710001732703,0.376912292998205,0.904627448229156,6.416
0.0304848823356185,0.519083798539979,0.680468768125617,0.816941243673169,0.0705195325059856,0.863380350964324,6.432
0.610158996803368,0.635274021004071,0.535508438991277,0.35267936544489,0.997527314971301,0.265091712646968,6.448
0.612010311740355,0.172770638904065,0.666478714744725,0.302395212224899,0.397884430253514,0.63538669090918,6.464
0.519533307546437,0.830022154786093,0.759790523498639,0.0489029968622002,0.629110496573828,0.517253102425334,6.48
0.420259987025527,0.118539230001085,0.907169864214418,0.447480852177962,0.0986314476458783,0.350943413368099,6.496
0.853927655292321,0.419243372902312,0.696324543629613,0.340437970859893,0.020755161073585,0.870730769200796,6.512
0.850643364285654,0.694903371850006,0.546102492111091,0.292461873586836,0.222714127220508,0.796198929896035,6.528
0.140693954577402,0.487837540388115,0.113470433326801,0.710505590456898,0.468058244951782,0.172670480735906,6.544
0.308247549630224,0.313770916371664,0.494051831317762,0.361989333644213,0.888811334604619,0.854950913298078,6.56
0.0875006504208299,0.961809884179986,0.969633235818584,0.698779503704453,0.933073353000981,0.721458112276229,6.576
0.613276631295502,0.689632361027506,0.30069268260544,0.173495417469785,0.852348833400366,0.79863752613569,6.592
0.00955210934085648,0.893032673519812,0.802936621304724,0.205076539787826,0.291623254594634,0.831031724516137,6.608
0.996464717130789,0.862399927148525,0.915624374643098,0.609874818236256,0.0991410160812318,0.876839824811109,6.624
0.584223329281255,0.819285417225473,0.222494548267399,0.107071698853362,0.395277159488744,0.0381851941692322,6.64
0.23171015607977,0.151676935809459,0.877065764480492,0.483403632004601,0.33343524871889,0.936528839970478,6.656
0.975741570904446,0.422329314935413,0.457538945785632,0.125267926652984,0.878844101173153,0.124969992766134,6.672
0.38579671525913,0.364637025932592,0.229244413578397,0.800789808441175,0.00736406042434534,0.402022274006755,6.688
0.810075644141833,0.780510230714936,0.514790335131565,0.889705756958334,0.00269161838071563,0.305713744611936,6.704
0.922922286704339,0.840952243484684,0.008152428531636,0.414398717650401,0.808315329162739,0.4801640023828,6.72
0.93095505317162,0.00110390211546141,0.78989379725675,0.15035654778034,0.605329458300143,0.894713901836479,6.736
0.48533578348425,0.195868975079455,0.232832298523585,0.611277445591457,0.446815577181468,0.907718707091323,6.752
0.487050282014097,0.0339784098249778,0.482462111887046,0.61877548113933,0.218706328277248,0.0625107851468274,6.768
0.0854198189421381,0.508301020348913,0.150770805303444,0.687656116510402,0.948110609864622,0.973603348679513,6.784
0.629690084402339,0.984274478499146,0.267302677418362,0.994825167038842,0.762821692146229,0.476296014196991,6.8
0.262818861683008,0.656518814461267,0.390716265652612,0.329931111368914,0.446551929589664,0.34691203083413,6.816
0.28500350772132,0.776729175162725,0.377161548103591,0.65443329828455,0.843694603629715,0.704740262189984,6.832
0.837235375088251,0.619874611182425,0.594297487821256,0.144725097491871,0.626198829679101,0.967282090500024,6.848
0.596451798520407,0.815922367634563,0.421510577861526,0.473915707544203,0.180815145533144,0.69375514005798,6.864
0.649409076862025,0.193096666744933,0.832195306700742,0.750030812866577,0.646751116825057,0.0201830207909024,6.88
0.764199486948256,0.891512584695168,0.407207572164153,0.276506113068247,0.338059244531861,0.453225301819159,6.896
0.51195233690411,0.526510874956654,0.316253282970053,0.603545568794595,0.323819982406391,0.372122219926956,6.912
0.6870267702588,0.789892603824023,0.794717906179351,0.142576213708492,0.372053591914388,0.860304162385161,6.928
0.212137602121825,0.323861588144505,0.219711427764358,0.342669680211547,0.028410753473915,0.865292453611154,6.944
0.149613881242699,0.307874008562764,0.954416890222136,0.625610490599397,0.568606272303652,0.688416525715973,6.96
0.53605847547437,0.572861940942258,0.388961852596905,0.792570941132671,0.400546165017837,0.462114425515971,6.976
0.916657293471138,0.88608114684565,0.492473685467258,0.150684529386205,0.577105260836013,0.897990308363791,6.992
0.66708528777372,0.511972383269075,0.916605504900491,0.474251005631369,0.891160594079138,0.631367593929366,7.008
0.0451342562067008,0.257699019485057,0.557987404033799,0.12842848989138,0.64044944287454,0.202215734465449,7.024
0.479930605557178,0.407074273476169,0.06611463038065,0.320959962444521,0.0929049570911651,0.702324457630351,7.04
0.445327486703434,0.463739233692682,0.911002607634522,0.233228091651659,0.0359988738665349,0.375949115801064,7.056
0.436939273498385,0.525584132614176,0.0224442118358411,0.215438747198911,0.707354609274958,0.210768101413522,7.072
0.599222965040657,0.363566950441295,0.129776590864274,0.395600182857672,0.239946425372343,0.792681652589389,7.088
0.105111497824587,0.591928740350174,0.609381270006944,0.892202355178902,0.167230809117232,0.822145912060341,7.104
0.631608069364685,0.719075617357926,0.0935695606898793,0.0620354243389906,0.213297246889793,0.834125359752456,7.12
0.971317464155697,0.239043883073339,0.364022042105255,0.732433643118585,0.972731594411525,0.329855253380131,7.136
0.855025308287473,0.426926972109098,0.651581228262392,0.399110612858576,0.25785172349558,0.984449677403529,7.152
0.697454038271327,0.223367452052347,0.844757622338691,0.228438450379149,0.519146599447213,0.801218630479874,7.168
0.906847357576025,0.239963599792941,0.166815387847957,0.464445706189549,0.700956778989809,0.0489664844879301,7.184
0.912698951429911,0.367560433550844,0.292339692634346,0.750741857936634,0.439227322798227,0.896211292144562,7.2
0.813659955945645,0.0212908545258971,0.692857991987674,0.525974483420973,0.801376942303694,0.369631814099979,7.216
0.381362756930562,0.322642990088167,0.616048832934652,0.949762008802454,0.147935248758023,0.27084159377819,7.232
0.260790440916217,0.986802923807121,0.785490333905496,0.680735527990197,0.554843113082644,0.195157227489743,7.248
0.527267687285316,0.71089059484074,0.891037281386768,0.619060193411514,0.550710739937545,0.49999000709489,7.264
0.484181737316264,0.175269609292234,0.0838885900589116,0.498533452395003,0.524686080025653,0.521780769088287,7.28
0.438810216909252,0.55587635472209,0.223377382640417,0.445548356076147,0.337176164138231,0.753939130656611,7.296
0.878170965568812,0.216126865558845,0.575627626371752,0.251723383537379,0.493033109139177,0.11838839097825,7.312
0.840779356568291,0.421320947153966,0.704556455390713,0.297805368008075,0.919918065820781,0.501351146043897,7.328
0.565664308050597,0.405684997725743,0.435670193254803,0.426308687728907,0.742250461959037,0.718255677076042,7.344
0.598513418139668,0.154554091727783,0.916668186714259,0.341950464467974,0.0187327735350779,0.698793793785162,7.36
0.647763937480463,0.933232448222907,0.558217861083102,0.43658172642395,0.579746301214306,0.898849494780134,7.376
0.987749566847324,0.816723139571265,0.954915400252227,0.74162152777468,0.569955058560116,0.496167421853628,7.392
0.567988329186812,0.98394589565295,0.752034367722377,0.919747148399642,0.330038660649499,0.109900260648675,7.408
0.92072723919164,0.640780678799472,0.724484908310983,0.673898722043368,0.435096570391191,0.0238265745483262,7.424
0.892854033829869,0.508434029752919,0.134720888865788,0.614072132333995,0.708385924971455,0.690179063254397,7.44
0.969907333305312,0.850635971866591,0.239334369551093,0.866985578131241,0.911586107511537,0.276553254864519,7.456
0.840323096331528,0.361836266301947,0.134346685344717,0.154032126179913,0.760727184564247,0.837310330609483,7.472
0.409786749833187,0.400391753790395,0.519685650894885,0.448353762438544,0.724215340754052,0.657155310839411,7.488
0.676812098294781,0.20147940360879,0.582799181919503,0.727711094927366,0.82285491689745,0.435328341080748,7.504
0.261782766961211,0.771323433416385,0.981831027560304,0.462230082312218,0.0686369456374205,0.319068981030248,7.52
0.42805054824464,0.40615660793582,0.227961142620097,0.813984774695324,0.229765905960022,0.3311191595677,7.536
0.247040012437817,0.706196068113765,0.984491696647307,0.817472164359792,0.891500700011048,0.908733439774869,7.552
0.955067043582413,0.890380642631231,0.629540791674764,0.534215384337379,0.767399890756785,0.248863229071095,7.568
0.204197212858051,0.0758504587529186,0.431036222943166,0.14285124668593,0.214946236385781,0.142391225464102,7.584
0.252090783976425,0.0976541961192832,0.324460019358483,0.455522011253069,0.105081915974755,0.846485205059497,7.6
0.816106863986184,0.124843049629703,0.140724172418226,0.0522854284433756,0.00805852365579307,0.371380009325383,7.616
0.787364053926889,0.243250888439252,0.380478990299449,0.0757843831239325,0.739791783038838,0.603854511952782,7.632
0.290763095853989,0.783255820501904,0.155689070856522,0.64134317104816,0.547684201438688,0.141381837360132,7.648
0.478390959359348,0.317879719056314,0.428073171075017,0.646386073167122,0.409587773475371,0.308667827854465,7.664
0.258650741385442,0.296786415824429,0.955542228619072,0.262907757906163,0.876087352587185,0.539604620355078,7.68
0.04571835725572,0.170023901724539,0.548501952612308,0.590651663964645,0.218381969288449,0.770437870414986,7.696
0.643195463937898,0.137555651447658,0.246085409568087,0.505055384214882,0.414608948722227,0.241572737661194,7.712
0.681510276905481,0.596266230707357,0.961108101821418,0.169953018151516,0.721583458126011,0.0653784220166215,7.728
0.471443346633802,0.142863456814242,0.77592643618317,0.512036263568914,0.625644914924292,0.138558908726488,7.744
0.40480057420467,0.0619878162421925,0.332583787192033,0.347818566732353,0.0654389303719415,0.745911789620171,7.76
0.492148080361606,0.478253470145898,0.936904881728801,0.715363880003899,0.562928276909772,0.543904604270997,7.776
0.150490948627341,0.687303697751803,0.934343439275336,0.344289943196403,0.945510148831171,0.325708067196068,7.792
0.140795162726243,0.35886088896346,0.392471974084144,0.141672738799068,0.443378616676117,0.33467038152276,7.808
0.843225001752764,0.345462934660005,0.247051402357677,0.109245265862681,0.58902039930954,0.202488414872484,7.824
0.768351586596886,0.00648591587271186,0.505564707756323,0.724234595439142,0.653436540482565,0.867985782406271,7.84
0.916839230601531,0.644749906818411,0.235233293890673,0.611870098460782,0.635827900599064,0.140131213840736,7.856
0.418195533394357,0.0252770986106142,0.236882549784658,0.34281454561401,0.00651029257857572,0.468474435670265,7.872
0.0583046207863513,0.443899466142791,0.376341079074268,0.475293021662193,0.122044168200744,0.0145824866980744,7.888
0.775009753344434,0.75817273890069,0.723978446461207,0.687414248243281,0.917368028302764,0.795269838349807,7.904
0.0108608450524114,0.58937810327948,0.590021047954029,0.0797832200859298,0.745254185808046,0.581608291637582,7.92
0.99775223577384,0.295814652386575,0.836212492404099,0.882621930329171,0.252404423165857,0.393664661754369,7.936
0.710685560654486,0.827925550100296,0.614262598830812,0.543231907400426,0.887318084955676,0.448590524932356,7.952
0.586210683506536,0.0922094388743538,0.200264479864994,0.9969443932188,0.297776479731371,0.707419501884528,7.968
0.892042678445857,0.423709941477013,0.351920767837957,0.0773903474007137,0.481401067350057,0.31928766369289,7.984
0.990224555328452,0.305541314368908,0.047768214780003,0.0137608486126625,0.394894806085206,0.219549024946797,8
0.491792323285739,0.981268835356455,0.714654435435143,0.479054795146822,0.714465704425714,0.309207166785089,8.016
0.37716877078391,0.430485140724464,0.338584002140752,0.527496124957652,0.574010271465017,0.698411278195896,8.032
0.52307108535453,0.917547505736241,0.264339516968813,0.949651161660016,0.671329781641645,0.860116240054205,8.048
0.420827546998228,0.417428683558771,0.409507552229164,0.676097566211365,0.94513526505723,0.884119016028518,8.064
0.191815742781447,0.182288504992373,0.266119499702875,0.0411581092241167,0.875939742277841,0.0959260852320823,8.08
0.157608003896104,0.462362002983174,0.421147597931246,0.677662639863778,0.471240059344505,0.100696021034273,8.096
0.892471431276361,0.483772320665547,0.0893386631523937,0.07931090695437,0.661816188593229,0.886248088580161,8.112
0.58866613579485,0.515101203744268,0.447069457272216,0.430785513913182,0.317152445146185,0.240051798710112,8.128
0.483498210366084,0.968666834981168,0.140034914306228,0.624441732867366,0.00855636866914433,0.210889609452699,8.144
0.976812562949181,0.282532087750378,0.341233167063394,0.615134416865914,0.0598599489403665,0.995604573789411,8.16
0.146833743983771,0.699694038326646,0.0915915245797241,0.366779772810924,0.845060790011922,0.629410455692661,8.176
0.703268633461981,0.89948170489779,0.108673289964403,0.73851115121555,0.165674130813239,0.901927571063106,8.192
0.339508502786301,0.77400075646413,0.920963245343696,0.641909825444907,0.197484403506203,0.770631857155232,8.208
0.849464290684383,0.334236990674323,0.171159826513591,0.439155027086136,0.198271491898448,0.926840614550613,8.224
0.304314441919069,0.397667502139955,0.135772122284411,0.333655301198037,0.0701352749654929,0.310188785257797,8.24
0.73170096235653,0.427073924057373,0.0745436156697277,0.187029278587557,0.749589477268757,0.0630151325817473,8.256
0.502768477347321,0.952558315794232,0.966613062776633,0.141962964210665,0.868458118613945,0.337210519813917,8.272
0.875886667493642,0.0902764091095984,0.142144245759138,0.467322821475549,0.624221518921642,0.570175579828092,8.288
0.878773989100549,0.454839554711693,0.957219963874709,0.192261917407891,0.179872845634107,0.324901249903991,8.304
0.327898390892064,0.744427191486635,0.604293315763322,0.956380311782404,0.616167672965348,0.943382012674304,8.32
0.730206146843636,0.864096595178775,0.866147651878579,0.593292813208326,0.166164085768998,0.0634794672265931,8.336
0.0210744662748352,0.650630522507848,0.153449070843215,0.197299516806107,0.91258979826155,0.51549594920435,8.352
0.970585596721707,0.381082546296951,0.386817767896757,0.996047418920615,0.209809852006885,0.657206004287625,8.368
0.89402431158029,0.486923915310293,0.974022531388387,0.778773147986506,0.0491170077665978,0.218599834920219,8.384
0.76019153369349,0.881002233696376,0.886055016311248,0.433444356641079,0.0308214910878387,0.57351561682534,8.4
0.0407558491516018,0.121890093582948,0.0669842609715136,0.575240766994567,0.63818117199411,0.173993027826634,8.416
0.587923587351853,0.400914752409441,0.129353180347543,0.573834377173389,0.00871752350235755,0.464865086818057,8.432
0.2472964524546,0.257566773842661,0.538509716845468,0.281866697590333,0.0199379408543479,0.759064623477455,8.448
0.25747697280654,0.499246586746265,0.427470239073027,0.638361459788996,0.0597485046697057,0.767948611321661,8.464
0.832206394715866,0.0966905208482843,0.333458447809436,0.386807157106656,0.78023500663453,0.646284443244888,8.48
0.789298345678334,0.913012872404746,0.567083477738313,0.210874026066686,0.187668229323218,0.965895437684752,8.496
0.388246728495183,0.631621886187464,0.725747837450107,0.83343528313808,0.940984128340716,0.469361177352973,8.512
0.300060654949687,0.601589603740403,0.406181087198245,0.74854994547107,0.554607434498381,0.477623185029945,8.528
0.264125522513074,0.541070008850782,0.999346203145604,0.434244434825405,0.896226484165697,0.80278186265941,8.544
0.754260986416821,0.180049488148145,0.066922862372834,0.421646462887062,0.597726411032391,0.328129760736576,8.56
0.502861070091152,0.982640684402524,0.329716532777208,0.603007277477113,0.549002877275943,0.295756503012768,8.576
0.141699469448353,0.537579732285929,0.857018771954792,0.01325977897428,0.865773018396989,0.38689309188887,8.592
0.694777704333139,0.858252560498269,0.812404913820744,0.0349536367055658,0.147418771086598,0.19419494050368,8.608
0.379336151409927,0.189577094386704,0.766002106045322,0.941103695851643,0.116279433877612,0.636671005316588,8.624
0.92562236725859,0.116369285062461,0.435660151887411,0.766875171838731,0.44600365976442,0.762255628588215,8.64
0.433719586992357,0.350984800646603,0.473910035010011,0.752914430250701,0.509901489550222,0.906790907199726,8.656
0.0750459837590135,0.742234876314281,0.74885485581264,0.873503823778628,0.563838722753463,0.790549336849131,8.672
0.0791591668290119,0.807081966788247,0.976345983430443,0.462210492516596,0.759783689898156,0.982414260124587,8.688
0.653613107588084,0.980295700039154,0.245145200854576,0.0180691307504677,0.661988223292696,0.759603465062428,8.704
0.841457516439205,0.687413645610654,0.988793432854147,0.874443332151605,0.691447658811666,0.999063154199359,8.72
0.931027284237296,0.724680116220802,0.925110121792077,0.0403137436612865,0.394896365928782,0.659589718281718,8.736
0.0476946205773328,0.591911216677039,0.367792457694778,0.974378043271829,0.983090740328203,0.403271004909129,8.752
0.0800464171300823,0.302496834488605,0.17408350680763,0.0325967872459533,0.14884262698094,0.0158926029586817,8.768
0.810834633083962,0.0754033753105062,0.557805045484655,0.921364367144756,0.981287620938048,0.66051102925846,8.784
0.303535387651606,0.296772441464527,0.923926207194498,0.21072394015866,0.241120506913423,0.786157538043949,8.8
0.6264087833493,0.150131512505324,0.100843693064524,0.622916169876259,0.7266120318275,0.207411074810051,8.816
0.650712382916785,0.0703190045348102,0.772155011364655,0.223969975228102,0.451886693169928,0.672752155268894,8.832
0.678026860265494,0.519336697412349,0.373197214851859,0.632573433483551,0.461484663494771,0.315800446825596,8.848
0.249135761263473,0.325134607360275,0.903630468626933,0.837251636934259,0.0398328562956046,0.500803974040784,8.864
0.548612005477096,0.202311438132998,0.695753244631131,0.13411730991841,0.61451100442521,0.201136671365525,8.88
0.533882856852629,0.0751330874390838,0.396481346904005,0.709318626539186,0.861275092723443,0.379790673794243,8.896
0.539651325358184,0.429936471933346,0.537033101751097,0.266567430642378,0.421635406894081,0.464190761977073,8.912
0.334132182794664,0.757913951090475,0.560984321957383,0.084506403637814,0.0746806070872873,0.229176230147388,8.928
0.905214484704512,0.27150113939342,0.0709658997354615,0.211115833161009,0.908612859408556,0.308606859600259,8.944
0.620783311745751,0.0917284497404015,0.556557296036364,0.240249802116421,0.569280818739013,0.994294876754463,8.96
0.966368807767682,0.584977056493321,0.11356774553188,0.00681636991178147,0.37491336714957,0.308617372445545,8.976
0.612419686413356,0.845853906844135,0.250338964236479,0.439316448890734,0.483292686660799,0.912133432627672,8.992
0.241743928880641,0.264684686845148,0.66049916494533,0.226790973661112,0.255519603708985,0.00948195250945916,9.008
0.618913552790052,0.228224729901835,0.566786118721904,0.908725567298982,0.631580466904529,0.654866617459512,9.024
0.32563575572736,0.30949495359593,0.128009134370337,0.399609926782479,0.151842475196573,0.66211412031981,9.04
0.0899785540672194,0.728284360514323,0.142574872874089,0.259427942401111,0.913385842858714,0.138602196465702,9.056
0.97591781501689,0.877475870585182,0.844216385389996,0.387520019628003,0.324893268068974,0.718492844113813,9.072
0.652629954586205,0.126355176063911,0.33775876952323,0.426658229726823,0.433744357786203,0.490832247087556,9.088
0.155184411778626,0.260442311016598,0.902256862202283,0.699133723436567,0.397786734860409,0.4900151366115,9.104
0.115691003791958,0.143207129698903,0.27664780587961,0.891159204455265,0.603099441129713,0.450484965355096,9.12
0.265680437232325,0.462466433954083,0.805556707490916,0.0106371027126697,0.270676516600577,0.703858572683061,9.136
0.918340458057618,0.613530725105206,0.160786381783224,0.873800721121418,0.683576283187895,0.597991723942659,9.152
0.848841213377453,0.482405665879409,0.447266804324827,0.158032043513491,0.199971784173972,0.3098419806714,9.168
0.371617081837617,0.567818713186985,0.986194871916514,0.448645955380549,0.0457339539988564,0.102556254947771,9.184
0.370585330499419,0.691342846114725,0.94820797114534,0.870195242196596,0.00262463649408173,0.545452328255981,9.2
0.0361924590457825,0.23947067182062,0.802764451030767,0.433901787296293,0.945352499179786,0.42849653517772,9.216
0.879483941030809,0.274043123762136,0.925133210170186,0.842029929113094,0.0795860512300701,0.0980079628966261,9.232
0.706099237181015,0.374707673561955,0.0366549037270505,0.970307630184438,0.158003538451892,0.845226623843574,9.248
0.433560554531157,0.646553148229942,0.561520059517524,0.469366490098193,0.242924747843835,0.799136280440774,9.264
0.985657762195718,0.13999688805566,0.88087933301591,0.0387578870543422,0.37314578875731,0.399444941513991,9.28
0.0173419444871945,0.845203838398153,0.445161645783121,0.811239018199877,0.256981257675222,0.194092377709483,9.296
0.479682547980346,0.5631402864243,0.57587899837269,0.927785688395369,0.214771385526637,0.686055795089311,9.312
0.844380145133827,0.0906127600404583,0.630133609845276,0.511142492382761,0.782006235590161,0.0123240083840476,9.328
0.983125776212908,0.280089917097539,0.133661881928522,0.305514168174635,0.907293537478299,0.776726235815409,9.344
0.0253599936003114,0.79433949619447,0.416993480574299,0.37136057263178,0.474597342516251,0.276849474361518,9.36
0.0578403915027123,0.13903847736668,0.474470556605618,0.74207187693862,0.755134743504289,0.21863018085585,9.376
0.748653258742229,0.58090478121484,0.921443195813365,0.7746289295715,0.728759251320554,0.697704794578992,9.392
0.319682672239738,0.88816423606466,0.477410424467613,0.694929481835711,0.906673754443508,0.760325632450017,9.408
0.50022611185129,0.579995829960075,0.247580101375495,0.576554359737751,0.433702481933662,0.867552480338916,9.424
0.81523270642186,0.175942541878281,0.523325492969653,0.110415030436382,0.159518624998191,0.987040927784725,9.44
0.872563249106638,0.0329647874195529,0.52005291513772,0.784565653825613,0.0248978805327503,0.821009901993221,9.456
0.506260890880186,0.138581507418031,0.786969341083126,0.959138570110736,0.543177264711454,0.819394841541782,9.472
0.00544525460437539,0.0900906914951164,0.572595384769353,0.625091759769734,0.229971123012379,0.826539355074646,9.488
0.795320585082963,0.480349949035615,0.906736787202267,0.0497012997673451,0.900394051831482,0.242208997516307,9.504
0.145748631405516,0.625168201708457,0.997966604913843,0.515753172542448,0.868174795968072,0.0836321373387998,9.52
0.0654603676082509,0.75099788616458,0.175301025798937,0.990297033620627,0.010663857916797,0.743149177997933,9.536
0.996450793608167,0.811819139112369,0.570827766405483,0.782026506143047,0.416425501703932,0.590552285402307,9.552
0.44705725191802,0.0536538366034629,0.161168363735758,0.245968120386508,0.182505417942395,0.831488394796559,9.568
0.114814414831979,0.968383933372727,0.0502511557069276,0.525361842019078,0.807521170267882,0.924508262459732,9.584
0.610175247140553,0.321886446247551,0.365267323301181,0.512280357482366,0.624052675958404,0.625918881959701,9.6
0.330060411448351,0.365459128209104,0.559561816301178,0.720517175683655,0.575115522247191,0.127409992787798,9.616
0.837370289285198,0.478887359458398,0.994421267095022,0.510782387431555,0.589760431486645,0.725238063953112,9.632
0.909468204600316,0.0623247797714578,0.370474493707932,0.528858586668557,0.857799352798159,0.836509419800834,9.648
0.00015970522983344,0.932652164840189,0.109124915632343,0.369026076648186,0.21702797307293,0.493753288916519,9.664
0.558319186430507,0.385065092288717,0.189566147410368,0.788020431828348,0.970383645718006,0.779625960088391,9.68
0.731146184117853,0.524215453550048,0.188697265234934,0.264589371862571,0.0538938675357734,0.553398139409429,9.696
0.490861461510053,0.249926303413249,0.534483638959139,0.124979366333899,0.204189448432046,0.952901874121898,9.712
0.156356519043827,0.836595340461653,0.848132572652612,0.391560106020701,0.425088332522427,0.0306028078876803,9.728
0.514824088066667,0.509760295304042,0.670185070137002,0.906797692983261,0.584881267642349,0.0549935026826074,9.744
0.235305496651481,0.535508439096374,0.346419362251062,0.698495632536911,0.261399169112923,0.829007933843736,9.76
0.103189180356255,0.854438165260639,0.127488272409343,0.172149570988103,0.384602083858795,0.344763551334564,9.776
0.589536494673318,0.956886451178725,0.799802639363118,0.00650063380129517,0.322468370464907,0.602827829530683,9.792
0.148142359870257,0.133149760424889,0.0401914606228969,0.340007197266526,0.905189133353724,0.158019740744225,9.808
0.834205628114377,0.531977034772207,0.107458545235232,0.472651941938975,0.825321784796164,0.181067385463665,9.824
0.743643476480912,0.368500965019476,0.567042596758657,0.657432725227382,0.25841391967064,0.987514823817264,9.84
0.648956553142013,0.973478690381162,0.805615093097739,0.380276168812675,0.532387348641365,0.939235317178877,9.856
0.380241479276735,0.466758364558377,0.948508324385899,0.355394144197646,0.85548809290847,0.812862474739969,9.872
0.954406876678893,0.748801127559656,0.244393595557061,0.832068509015578,0.126785625347606,0.886053084229012,9.888
0.0677435752196022,0.0142512270394203,0.0301567294395899,0.742187020895277,0.647142890665624,0.142636382356522,9.904
0.463655495715566,0.560767393946484,0.106814140375318,0.260572809805381,0.202864410153422,0.0179791108524249,9.92
0.218182506521719,0.915222197776019,0.724004159838073,0.857445566144104,0.527086664026514,0.874105665439607,9.936
0.210197445456994,0.392201040227111,0.759964211263895,0.997198108579166,0.938429089467935,0.755274059984031,9.952
0.379724509714146,0.755650951081023,0.986543362722973,0.81813394862436,0.448852883552935,0.863832516656934,9.968
0.381304799743439,0.641153418840556,0.160791049633157,0.556036197630625,0.18477480163512,0.756268301533447,9.984
0.821957402589825,0.0551482421043458,0.0993900460227345,0.434772824348285,0.999863010245426,0.269156506509696,10
0.992545938939278,0.391837938258016,0.912586393294717,0.227443877594569,0.194936123513825,0.410184673315496,10.016
0.971470202029019,0.63362857692063,0.532098429048409,0.352754433529386,0.576219009037927,0.690693145077801,10.032
0.555239906034076,0.157458047101093,0.344370454520851,0.0843998518636014,0.217085819161368,0.437286140181353,10.048
0.199972851486297,0.665144758921491,0.642968320492486,0.558631157129768,0.59949335281738,0.403593925390398,10.064
0.310199684437511,0.531243023836037,0.642873948058468,0.377060264277815,0.977617300504711,0.59080852012467,10.08
0.564284460756413,0.725276215820973,0.547922326020364,0.400878825065392,0.553205181396413,0.356424795293268,10.096
0.219115031812536,0.193088082683637,0.693820184532964,0.51484995215025,0.0546569187239482,0.750371513037708,10.112
0.236605287637723,0.208709149586537,0.557292334195571,0.0093888272235646,0.830863332090516,0.167788082153351,10.128
0.400536471091184,0.0506152255277399,0.434870868572962,0.290521321411266,0.940349482625776,0.358839445014603,10.144
0.435833932373009,0.32672516560231,0.697459811263992,0.554417096807695,0.305922266918535,0.30250290155028,10.16
0.74580006846561,0.09216333720901,0.639667202280525,0.680274567123085,0.955532410410138,0.32513088009292,10.176
0.562029739012808,0.830770128740531,0.20423773287202,0.366533176156077,0.899407577867998,0.283776326213802,10.192
0.506372275638552,0.229094927701422,0.636425782253199,0.289554938290706,0.755680049287444,0.597957932694152,10.208
0.590345212635688,0.984235034599747,0.0623340719881044,0.589646327218914,0.758549112390644,0.307931260161653,10.224
0.432849530809009,0.860122180680991,0.0468987568643658,0.380788473830068,0.827276749478567,0.951936779430693,10.24
0.622500875626468,0.269720437865594,0.36101861098347,0.904505453150404,0.199124791154855,0.24778812863119,10.256
0.517291453704035,0.492819479813071,0.520609647094445,0.886532895436169,0.464788229618586,0.102446112160083,10.272
0.242065270092117,0.0725349445797101,0.22418257651273,0.897395993000763,0.101898471262342,0.947892704818723,10.288
0.65584985388483,0.330818430279655,0.962138926083581,0.93924699115953,0.883996900717872,0.30405167884394,10.304
0.38506918434564,0.703168234510156,0.581847490391371,0.433127822152332,0.785539340573397,0.953133016977485,10.32
0.920596718033332,0.273508920122401,0.832052104464571,0.470357720426439,0.805364601952877,0.450423076826317,10.336
0.989880730167767,0.228718073534311,0.107285150604994,0.144082145943974,0.0205035606875364,0.820787552560704,10.352
0.448246348851566,0.15528427788007,0.654694344491371,0.545409979155941,0.36382474869571,0.642767609920234,10.368
0.353968310286051,0.165450143219317,0.256019295411574,0.936853624337418,0.753099140081918,0.961388370956751,10.384
0.69027806920254,0.282501921226107,0.683267426391444,0.520390562171518,0.853376493042354,0.33969122115834,10.4
0.057567342635153,0.0775906899298983,0.870990512429547,0.130036011930176,0.627222880583551,0.529398330257841,10.416
0.247367508774998,0.922024329403479,0.545596779820327,0.501309467740518,0.672199172229467,0.0323637018752048,10.432
0.196311058000703,0.109291039062785,0.207484300216546,0.348648491286288,0.537025433256815,0.969844312605253,10.448
0.844406780392002,0.692958960291061,0.709653992101066,0.915039611748691,0.786354543938439,0.472598759075419,10.464
0.373390424577802,0.752382735577757,0.854244338446556,0.781763327347644,0.696886856375711,0.0578362259452124,10.48
0.706847252744479,0.693846702662396,0.10700068843443,0.572618362866875,0.0851540360992493,0.59903218319637,10.496
0.894598709362383,0.115646795943732,0.613011004946209,0.715242472751429,0.451531170887892,0.552553180621248,10.512
0.551297021172965,0.525722732378028,0.439578158333287,0.786722684284444,0.48845570255653,0.863031038347915,10.528
0.699883540935253,0.024228325080926,0.11286449231602,0.766705543384698,0.844573433227535,0.849795923175952,10.544
0.245769197424233,0.662323813898297,0.117654833935127,0.140031462472079,0.436696482219146,0.235355162510233,10.56
0.801283770514352,0.153040257433061,0.357413659982185,0.389366458724586,0.820834054919671,0.485384057430584,10.576
0.313714448251104,0.705488055295889,0.834077076782709,0.634682937900522,0.823390157288082,0.751302210277891,10.592
0.781519114672799,0.834068384909647,0.298456526109899,0.716655604300224,0.699509608684273,0.267705303040822,10.608
0.949894990921524,0.206854838984202,0.0491297742837727,0.380389978952484,0.249818363110296,0.184932515968874,10.624
0.13481363450733,0.273490387730153,0.470847831441135,0.343604474093023,0.849032983074098,0.866058713214105,10.64
0.258751632442553,0.584047776701038,0.957706285040215,0.317370352056582,0.014877588959827,0.811913342184567,10.656
0.449387903575096,0.661716951634576,0.739924802029078,0.888427734274272,0.0635994917176068,0.0163533540698179,10.672
0.131391713112709,0.0860439361687473,0.22932619855328,0.629208515142071,0.262189457095546,0.677500462478977,10.688
0.324751088326513,0.81768254322475,0.115890988927815,0.288990989299443,0.332996174250774,0.530569890237883,10.704
0.826118155485202,0.569227825617312,0.211399759422251,0.584269706014041,0.0721083323898611,0.12974064674159,10.72
0.539048062308093,0.439158675267359,0.0689410166960256,0.296799082830397,0.406779625328292,0.120319132134836,10.736
0.480221554958273,0.770439462923576,0.290538882210685,0.641504498343742,0.443876517649705,0.770934240042859,10.752
0.333214041324966,0.874282673045274,0.724755406764802,0.989111090578885,0.902596563960406,0.3214681474229,10.768
0.0296693199498079,0.110922291970595,0.372042441449373,0.4033468658724,0.292490612209518,0.571965865004357,10.784
0.166289311477725,0.771507579714121,0.952940940729222,0.0660215203356777,0.867428397314462,0.131552176351111,10.8
0.855210488454347,0.490817288378812,0.86448588853623,0.423404744956332,0.229955329049441,0.736308362826902,10.816
0.583520286357948,0.0535102718911691,0.385724599112647,0.0150105387180594,0.985680759073468,0.797327309879514,10.832
0.822879093418967,0.323264190614717,0.169185278840747,0.494460695326493,0.829348223306048,0.63347481721618,10.848
0.0568448156520985,0.802167346197925,0.986727414068499,0.513029913916623,0.808866378543075,0.37250029564968,10.864
0.123933885356273,0.440374374164019,0.398085830911516,0.831495799699659,0.260468014406474,0.908190954239034,10.88
0.665692961821547,0.622939549116764,0.814289688347091,0.90736539529857,0.849606612535481,0.196155918461364,10.896
0.614619043713808,0.15439602187492,0.582988762734367,0.208509040597163,0.676387381138617,0.717310137454232,10.912
0.878032678632244,0.397820398410208,0.992803795925753,0.740847426030169,0.922211226299974,0.0661112420353475,10.928
0.214926985865713,0.508147563028372,0.277549996885392,0.541446026436688,0.813498830793772,0.76359347925271,10.944
0.545913883372108,0.622291116918993,0.30862309654382,0.024702408998007,0.860016808266262,0.835601862489045,10.96
0.558187846749859,0.89912158168682,0.646061881392563,0.660940508373135,0.854949333407391,0.295741864593438,10.976
0.105802244685055,0.825734444061707,0.400224639027958,0.384167071295632,0.114136699248966,0.7787081424822,10.992
0.793294052205387,0.261857033600026,0.555203169876629,0.875704358720552,0.582517201487172,0.951007435861146,11.008
0.953823659344093,0.204095127728082,0.27608963995663,0.903787770867002,0.291871418203956,0.954267716009745,11.024
0.964196884944415,0.0182971709129001,0.974296116869672,0.0492135592914239,0.342112322518622,0.976923310437596,11.04
0.68192196471744,0.268838215101147,0.711125967164789,0.943010741214719,0.552129569550699,0.609065529418415,11.056
0.911800888439201,0.0763168038752338,0.21293230434776,0.589716909200507,0.117598664748629,0.400352685550658,11.072
0.860191778284823,0.102827375098525,0.475365087865619,0.745617320659298,0.410350270575662,0.407533591015156,11.088
0.383616864241298,0.123536250041876,0.801723982759351,0.121633541155953,0.839863492406864,0.145986595076262,11.104
0.322363128665036,0.387223682601358,0.321528049062932,0.74338344252215,0.734620436778348,0.426264120978765,11.12
0.553061547674491,0.197498131128828,0.264870538230595,0.781770692691062,0.541933876693955,0.25812679572178,11.136
0.466114103559841,0.146372330207839,0.340605278625436,0.975912913731511,0.199414449704862,0.368175963187792,11.152
0.354566672335489,0.833338506712957,0.710073755567738,0.265058751382619,0.331664345427547,0.572649549871451,11.168
0.327017835176025,0.00843647791770119,0.252420414329293,0.701228409063604,0.237812934262421,0.119532627592781,11.184
0.256557597993077,0.179919684082568,0.745720000172214,0.503975770944534,0.501299532917011,0.811782539614771,11.2
0.618785318249735,0.856704830291587,0.881780349072958,0.945214350434326,0.327720678013401,0.80729106043018,11.216
0.997273183323439,0.313770359188739,0.686091698280096,0.915132221998517,0.60332999558058,0.0793498503749294,11.232
0.0458783272708688,0.489268333001502,0.0770202491308801,0.0376847098389231,0.73982448815484,0.848376120438432,11.248
0.324576851926138,0.0820177052157134,0.822191043287067,0.459939025098709,0.558071140318234,0.23768459419472,11.264
0.986163698921179,0.640414081505802,0.373419530682931,0.478738459277456,0.551138086883194,0.261732588659194,11.28
0.0243533758383521,0.169543463274754,0.0243442534840793,0.25017153329832,0.136894072467363,0.812431046947625,11.296
0.0110013155368761,0.221081666408044,0.0607948198765651,0.472971866129708,0.341200141053614,0.335341181121595,11.312
0.687527232248584,0.334935901274415,0.752088712053312,0.27115115261381,0.126807621123702,0.0357909543453531,11.328
0.87226259185178,0.124841780578145,0.528624282785484,0.787307804228997,0.257673909333748,0.352578246133269,11.344
0.388219632084713,0.768261114949561,0.0891050891594289,0.909522794770881,0.89171068938987,0.848307117665888,11.36
0.759659839519667,0.193318699183388,0.583358762729012,0.316270796609792,0.997091812754944,0.499096702458253,11.376
0.147966159094183,0.761616942352094,0.631398109326475,0.774207564551925,0.61980199526305,0.0203612977750486,11.392
0.554135698506607,0.144492214603052,0.35965235933835,0.98187188905444,0.331609741327687,0.917756209983016,11.408
0.704359157089841,0.0769116195509273,0.653931190721106,0.144774381821408,0.917942950226812,9.1134227688916e-05,11.424
0.174868294232101,0.135377550205313,0.424883199474139,0.414161786719516,0.299816925607792,0.333629013833824,11.44
0.0544429818241484,0.113504943878646,0.240349230449415,0.942588821244104,0.430834131307155,0.903375707789125,11.456
0.321169313437468,0.0695652778953707,0.0457341477892528,0.126334652834946,0.414880880633101,0.682105645649306,11.472
0.340729828267246,0.305569922231554,0.431234055027408,0.64361213287259,0.619286911154074,0.594710633473569,11.488
0.894238440121398,0.766139326442052,0.605961441537293,0.148991728602109,0.912488817498737,0.738741903059941,11.504
0.755489091751642,0.752376465630201,0.406248562456875,0.278874061776909,0.131281030240435,0.69990836500297,11.52
0.735413932820238,0.38272180750545,0.16795892663075,0.759403667200874,0.158620468894729,0.73508996999755,11.536
0.454680342957266,0.0974810835326017,0.457840569489215,0.270128355495828,0.145337199370504,0.743833280481158,11.552
0.300320911609758,0.897809345040817,0.180245073330798,0.755972466566634,0.404477952161213,0.205389851506282,11.568
0.317014980232211,0.839321905144179,0.676097835668243,0.246149832021397,0.735482355891193,0.0981963419528648,11.584
0.101490584848183,0.340145085573853,0.401894117874155,0.387564035108146,0.487387515049269,0.840547862746828,11.6
0.00159693229899704,0.792462847723823,0.113499738470633,0.395149419326979,0.546417480874265,0.555279323042571,11.616
0.128479461950448,0.15305069826104,0.424099622167139,0.23132951366028,0.0253296148499267,0.0693589544232232,11.632
0.863356862084518,0.218949022483637,0.503334718642338,0.540347290025698,0.52975265008569,0.45301518936984,11.648
0.688947646323159,0.0157645885811944,0.581097469066154,0.250974495445415,0.502285241231582,0.845859647987323,11.664
0.636219733438489,0.0135333716502644,0.868908927271163,0.570245977888762,0.472958818301769,0.442642890155816,11.68
0.102574558157043,0.523923505746555,0.951013273701984,0.311709773298338,0.930134597268373,0.890009254036734,11.696
0.360053459498477,0.863369794900772,0.225330107143661,0.578719350205856,0.92373558742861,0.326372620823618,11.712
0.181211498792166,0.88891614153302,0.409826375652045,0.704575678051627,0.181482377420942,0.393045800545057,11.728
0.961729610328081,0.182385840554251,0.847074024801902,0.694171715662576,0.131472799431829,0.403571395007453,11.744
0.197858031055485,0.990321738444257,0.0076181762074129,0.823872556860326,0.451945208240119,0.624846262448745,11.76
0.926189715467324,0.835830561125531,0.361133966099002,0.720015845656799,0.700357887485756,0.00659884588573467,11.776
0.41662318502429,0.830082265599439,0.708427933854716,0.895620683538199,0.200465467921965,0.0796503829904508,11.792
0.889247635936419,0.581267039603962,0.958720466150298,0.314470943460889,0.809101234811725,0.951957266692752,11.808
0.275730432367665,0.799431178097161,0.758099569777525,0.939397657574885,0.551042185219755,0.456181210509306,11.824
0.138087303713623,0.171164348553025,0.668308945670605,0.153076512822363,0.149497869282465,0.864028081706326,11.84
0.571384790272234,0.252126602713777,0.361641322862661,0.22887435847885,0.880010491129661,0.177527445125279,11.856
0.592033818256056,0.229378032530481,0.738057896978986,0.817543950409079,0.643460040079549,0.586804560459994,11.872
0.363697789082208,0.295543924681594,0.897292557688601,0.767963017448317,0.696960728630808,0.659600676287621,11.888
0.831204693238062,0.395604584356338,0.448858727804178,0.432027945925123,0.94721433946317,0.12431180765161,11.904
0.762184331142192,0.724749679768941,0.201296200280875,0.0992427394365206,0.716560368084193,0.237304045570314,11.92
0.0873856564214466,0.575599873872205,0.72860231649219,0.783008184964762,0.948954622549834,0.610615894725003,11.936
0.87396624468195,0.254293357506562,0.594417670017757,0.963846812093742,0.54078900583811,0.450667630675575,11.952
0.650516246683274,0.711570763983975,0.851512486298343,0.109369768853587,0.335078493374904,0.59723367485045,11.968
0.716126858390147,0.211294195935694,0.250230088355306,0.983425779308111,0.00797757751211203,0.631726483944084,11.984
0.923724692945866,0.434434195285717,0.141562836790748,0.476292476229828,0.721612112691483,0.520536230067111,12
0.184411666199556,0.179118092408833,0.320243931935372,0.344816507711955,0.904860541646136,0.546256953105317,12.016
0.571844826997134,0.299291656211176,0.220841671719666,0.915649371437602,0.990167195832079,0.0138956086726656,12.032
0.661017434379217,0.982133686710211,0.838672700676405,0.841926178616777,0.133296497038279,0.147954350616677,12.048
0.853879400232012,0.786322609484838,0.0323448815352937,0.692036516181862,0.482716085470058,0.9902759720559,12.064
0.856845066156143,0.391207931612064,0.936024856915464,0.418160716512986,0.191375803082245,0.598602915055206,12.08
0.917759733011273,0.752942058911207,0.973149435516884,0.827156946264339,0.456042531983289,0.737535265055121,12.096
0.882137249103376,0.397188681081821,0.265128830386592,0.534167131334873,0.675185628371077,0.480329891063015,12.112
0.734473771674905,0.548350423520911,0.908743802785457,0.546080202133199,0.284576153597149,0.691473037725628,12.128
0.693059531101048,0.0995197719337939,0.620587285504128,0.798417114494379,0.493023738585599,0.280474636804353,12.144
0.247457266210734,0.948943893735807,0.247251710118192,0.473505287372222,0.048465880845018,0.461542601925479,12.16
0.21076917566612,0.750795703194032,0.861873567729323,0.162234442780044,0.837532326222072,0.681147738705704,12.176
0.646355068754967,0.505330376877342,0.921515801817354,0.798727159864318,0.065691247444767,0.305980812802225,12.192
0.356496766015339,0.719249778253033,0.529805430587502,0.1162048343288,0.0804047546322032,0.449121313882768,12.208
0.919205336485261,0.532983614079895,0.88987564290833,0.457236249330563,0.00653067203871438,0.64644433897462,12.224
0.573905672374941,0.685541503286046,0.170383598272573,0.472780879733042,0.0809239527559872,0.0814647619875051,12.24
0.509227157727143,0.513405538014005,0.699298910226603,0.819372113133092,0.563114471551362,0.765335933025808,12.256
0.0923007680919743,0.613221745624867,0.859993136352002,0.790123116011838,0.601411844699233,0.725428509303989,12.272
0.644691626765503,0.861002691733125,0.795563918441806,0.104235577647436,0.891609389214975,0.266634498769688,12.288
0.770623995914767,0.688546390720141,0.266070426034577,0.568977917276941,0.900626108499605,0.951867395679838,12.304
0.0714132999238541,0.711451692612077,0.739770941020058,0.0905788729977488,0.0272513622235427,0.115781887249389,12.32
0.787326484279339,0.998628198483658,0.71762829989504,0.601996548537024,0.384995568643538,0.822510162768557,12.336
0.409488544556617,0.028413219281831,0.724811369074235,0.708493387613516,0.874356364005579,0.269711548970341,12.352
0.58230110670809,0.227679708844299,0.314107644869418,0.336641509252918,0.249792801857262,0.967976827844149,12.368
0.405448466382367,0.569404235848478,0.749776314730237,0.836670718931627,0.976935286624827,0.221362989347494,12.384
0.825271588931206,0.498012551808845,0.942964643600297,0.487654290388067,0.101450521800344,0.01985150281915,12.4
0.854403644462337,0.599093156230708,0.872576048997604,0.757700636508717,0.505003387259271,0.599880521685559,12.416
0.52625419280374,0.44005241770555,0.196006062433061,0.0726841381456386,0.0855151876305118,0.527443596595104,12.432
0.428412190409768,0.506971301565393,0.434748040370856,0.535349608107992,0.0456422683903793,0.404982822409873,12.448
0.0808140379741207,0.26719362131135,0.553813736011832,0.195129951690186,0.495379774689667,0.86219697771387,12.464
0.000716094174503579,0.890327453957306,0.522735288258736,0.488008529957534,0.893487168808715,0.805538413286567,12.48
0.760165463595854,0.222157000486701,0.281172303021304,0.413312709405388,0.532600362471724,0.665562963747717,12.496
0.774490372609991,0.117713824306013,0.0686938472378364,0.396082949630248,0.980828624866825,0.563907164224392,12.512
0.787892678599694,0.365855797314638,0.268552423004931,0.197811831670956,0.891829425985838,0.33094675400942,12.528
0.488755550974013,0.728292428424808,0.780429415452469,0.0476817312798814,0.0342806571852032,0.875571701618536,12.544
0.502383498975468,0.645400088802746,0.977183291603972,0.537614256465886,0.227742589718868,0.350577701090021,12.56
0.122230909755172,0.323500231939919,0.359571154095172,0.373023783879807,0.940948861883817,0.116592911953096,12.576
0.781676122457822,0.857982261604896,0.827112295076981,0.860567451335466,0.952310593121509,0.498183928497529,12.592
0.797379628801006,0.804909079277865,0.54113971919396,0.460109604267168,0.164664380084997,0.447825168860384,12.608
0.792533697951736,0.618479853880068,0.306665614009107,0.0855038182142244,0.843308009785537,0.222666710751314,12.624
0.429520429621933,0.789446162637577,0.024269152669202,0.358943257589299,0.744555046830203,0.435823920188738,12.64
0.16474224304604,0.31524970159623,0.438524639855928,0.33215336173875,0.256129838651231,0.622852862513218,12.656
0.258815111464691,0.662766380315376,0.0345577406747418,0.135308351642508,0.0377324946093442,0.425673516996422,12.672
0.556179315795795,0.0170439850078445,0.287995988624636,0.59437696632484,0.450965236575059,0.426358878695297,12.688
0.998049600644279,0.704764392891346,0.813938009583959,0.363501156356935,0.537740679892936,0.28484960804493,12.704
0.75975433915641,0.893314301952298,0.553453805779512,0.754486026832457,0.0560835310262568,0.698396779571427,12.72
0.527440335820266,0.00859078054508011,0.395216728080184,0.88289426793212,0.622503714107416,0.442428929563382,12.736
0.600406037486064,0.993459013672148,0.604290811521201,0.550112942916321,0.638432662906219,0.648456870500328,12.752
0.742804877841683,0.920561697704594,0.524714182787457,0.482539056726248,0.900522111712924,0.609258118179014,12.768
0.705615166061275,0.103125831172506,0.908628398582306,0.798792243183521,0.413966475889597,0.152267875095261,12.784
0.270724368654443,0.660398792813416,0.793355763112356,0.98983437136119,0.154996266202428,0.638451157186292,12.8
0.536724389647428,0.340520821523573,0.212226838591336,0.989373488811154,0.721005567292654,0.395973906589075,12.816
0.206586543514345,0.193034251000871,0.281036048751744,0.411541596943503,0.339755378090243,0.480866247286557,12.832
0.791084971946463,0.500415867532467,0.334376632274535,0.0088555325857268,0.997419707560178,0.302373873597022,12.848
0.367884073873034,0.489342568865309,0.00171115998810167,0.568160495922156,0.376069963107224,0.311214519695111,12.864
0.928142135146801,0.948606240104346,0.343503023895087,0.497393112003838,0.634927272028816,0.167120397035967,12.88
0.55041700880092,0.913434716588239,0.0254062065153161,0.916873151574006,0.490114237819213,0.859668419078498,12.896
0.302070867894085,0.448030823317523,0.582042503453291,0.412438432615922,0.135420014988219,0.963745105726061,12.912
0.72916293310778,0.917379265043906,0.0501404444622937,0.454606585378962,0.816705691268807,0.75416961888276,12.928
0.602474332249772,0.0563912165408431,0.593758802074048,0.451945553533509,0.307482846071602,0.627658170588134,12.944
0.774077054461322,0.702287071809278,0.994825850436143,0.897480670182261,0.364082329828871,0.259597922425689,12.96
0.280953029766979,0.37853610934542,0.70188772219265,0.0984960802138679,0.670619884208364,0.482551444048383,12.976
0.829446650404843,0.446375695406948,0.0732131241979569,0.750709977366863,0.355096807161637,0.00511949782756893,12.992
0.615716729242571,0.301974894681919,0.721182322956288,0.505292434973057,0.293433853388824,0.610881265440573,13.008
0.61000703719082,0.409285846434615,0.890765356371303,0.151971918704302,0.807556800866412,0.1270794398938,13.024
0.495378756423546,0.0125529487013838,0.314921306255196,0.357488244511263,0.113983071178166,0.891230164831516,13.04
0.238664077881471,0.926446121631834,0.292569305577587,0.699252104339261,0.418090903768085,0.553851075556673,13.056
0.554538223724467,0.623369526247902,0.245817785927237,0.737007391130925,0.221413373521322,0.257372384957486,13.072
0.443603450727844,0.474420961210454,0.949178802518135,0.45321391666288,0.167358644264533,0.292132180058708,13.088
0.995455918865891,0.820616586956949,0.949321059031469,0.269632749326908,0.919914465307018,0.259547385975251,13.104
0.750468610284759,0.0280656979250443,0.578111989352389,0.799813216957528,0.0567237132298003,0.246122626984876,13.12
0.100995308899145,0.135218753389384,0.216670510799967,0.707256598440407,0.328920871099849,0.87212291273896,13.136
0.40117741609412,0.609590704363657,0.0247814806578185,0.122832407367192,0.454030068815029,0.133895865215157,13.152
0.312182088945389,0.18894224911506,0.0408660544088405,0.514228944121583,0.969687641438218,0.819105265885263,13.168
0.176096444220117,0.190293654378794,0.0727590805408194,0.547278136414102,0.956929161675867,0.735963734054735,13.184
0.880510837054718,0.183689456645368,0.754064165903595,0.0231476269312082,0.000276625713023448,0.165097415442322,13.2
0.639881090924425,0.0755423819435608,0.332745956726835,0.0937774361802938,0.0117579304706721,0.842292970644835,13.216
0.523597060917854,0.197879692459087,0.324790732339542,0.181516561488452,0.0318939108426012,0.871559252487696,13.232
0.683785691160914,0.846913763114724,0.552872149868253,0.386973605923397,0.888858325430693,0.122699853362152,13.248
0.483544779645443,0.783307357880841,0.766395372884155,0.992656751873754,0.673758752227784,0.164118300279851,13.264
0.833794062553134,0.880805113490063,0.705472636878505,0.327578367591621,0.130356937339083,0.0135024701987848,13.28
0.65982746339402,0.822456406650713,0.705191833590975,0.610854129698139,0.126680241920853,0.706220103262001,13.296
0.565790894821891,0.173550163881967,0.890959464227184,0.936949183991995,0.791559031056869,0.584974138045598,13.312
0.099074766634037,0.215266004313426,0.47623496335037,0.253710515139065,0.653120648364307,0.0266456962765498,13.328
0.00808173264432555,0.416559088343159,0.266524972242358,0.479748365241157,0.139500137514871,0.648735556460479,13.344
0.385605218278014,0.038653040617866,0.951965342695309,0.823252921212183,0.720257440922962,0.733456129681202,13.36
0.746639388811293,0.735179100955003,0.711110348945925,0.0504921122830623,0.0278715953834879,0.401599792936384,13.376
0.123921601113239,0.85902142800845,0.401931879328682,0.494620906293588,0.628999760970625,0.0360356016664807,13.392
0.378981096540739,0.664478751524313,0.974779973417161,0.681143331525247,0.0402078740324335,0.964436231628868,13.408
0.241659126047804,0.685404110839651,0.282888683553189,0.884219353427997,0.016637358560788,0.597358893556625,13.424
0.469488263272543,0.54066147255706,0.0380744766560021,0.806999499905425,0.732771017987513,0.324702460470167,13.44
0.206005441142917,0.113158504026295,0.91808852443809,0.615877107477746,0.671176344852441,0.0349858757131661,13.456
0.736047353131614,0.972890332363977,0.980519592533453,0.367418118388426,0.670843680761381,0.523260769090181,13.472
0.702680926393353,0.434944426152224,0.172684806004054,0.187062062036205,0.912915127630333,0.479380246657298,13.488
0.440703354266647,0.164578453242371,0.139329813153264,0.924622615596175,0.331240939774077,0.41801313648399,13.504
0.264329752283895,0.943784175121768,0.189072436134617,0.648295825130183,0.104497281953551,0.0177239086988146,13.52
0.907732692938587,0.318972566465947,0.457637480892373,0.926785765657228,0.559281745839881,0.68176341421239,13.536
0.557691509890219,0.00272006760126842,0.88179538600391,0.160804284121112,0.0428825901352989,0.2135061137999,13.552
0.294081638739772,0.800740474856711,0.472383207091504,0.477122470882488,0.0397177315832411,0.624942820756094,13.568
0.702029425226115,0.873704346601365,0.081748846050368,0.254206145573264,0.210612587142295,0.206539777756792,13.584
0.0535137563799664,0.750364242388389,0.580868601248602,0.752507513098415,0.327890619698723,0.450136044782003,13.6
0.322112106491653,0.852118068062222,0.901499584952891,0.0452046309546549,0.346603499541337,0.363629401438898,13.616
0.274150737378552,0.767853956931377,0.594751969398947,0.355794352411843,0.377489225044885,0.728234463923424,13.632
0.659328305482938,0.798247529690868,0.415700476061275,0.0830082302973478,0.0219917146246782,0.018492758726401,13.648
0.367322507825053,0.627656570048019,0.929700065673521,0.238515839631646,0.0156406012682421,0.7758098835049,13.664
0.690430590170467,0.332556848857763,0.733143731454981,0.107142231999575,0.909060411544216,0.800520826137497,13.68
0.486779047809577,0.664196540097222,0.470462308406335,0.175441141226397,0.103839655944107,0.429783446784911,13.696
0.683507054048496,0.198842425542916,0.133161481193968,0.295727523786201,0.0958657582344141,0.905139422977615,13.712
0.522477390675117,0.171327618225179,0.806320201139113,0.0875681562689281,0.513632995863533,0.207313297456061,13.728
0.220995347548782,0.871704825929811,0.709088251629235,0.350531538077968,0.0770530090383804,0.716744747334786,13.744
0.0380964792447089,0.753974187217557,0.0878807740837023,0.809336741476911,0.839810467372895,0.94541881636743,13.76
0.957721073667882,0.188950371848446,0.971623127677905,0.341919722749553,0.950944965674117,0.288368131565523,13.776
0.576071586470845,0.0389212137202398,0.411334449345948,0.360607208211293,0.144119852657137,0.449437247410187,13.792
0.457904324111606,0.783104849538127,0.530697634977137,0.580391921727776,0.682268510603778,0.211662666058725,13.808
0.930754062194281,0.785040599505474,0.833568009444324,0.279843688604208,0.989236889341886,0.4995064636652,13.824
0.624858992346207,0.295005120032658,0.899139691586369,0.0147010509172163,0.757107589388025,0.61999778217286,13.84
0.826067107014391,0.351574696920546,0.673935947968303,0.26212083822363,0.335948000608049,0.608174814525452,13.856
0.40877470496905,0.602200556359597,0.0383909136317143,0.0057989065574422,0.335219309827774,0.419102004677539,13.872
0.648337285104348,0.767196408189659,0.166031854611928,0.149513487425718,0.952962166262665,0.149414480492737,13.888
0.968238555845744,0.397227953866111,0.455547622425585,0.589813322013812,0.421303942011168,0.617839127739566,13.904
0.0607069884096176,0.64825344442789,0.206162204633169,0.454040904190027,0.887681344732043,0.0405849139672779,13.92
0.397776820829079,0.958563077614169,0.440654598256505,0.664664906391291,0.500944487346229,0.660329490464677,13.936
0.472719764679829,0.427786335854536,0.433896131966908,0.945741260198151,0.906467566158713,0.415998148276629,13.952
0.373699976978897,0.926158826703322,0.423453776513021,0.369684234522088,0.0173802978500458,0.109856379886906,13.968
0.695541148581376,0.840248761362228,0.0656237020358457,0.922331674842465,0.0405275293761609,0.238845159546382,13.984
0.0306014918577087,0.975414588698909,0.441402028113929,0.528013085172778,0.727592439105024,0.443575808211798,14
0.234812727059504,0.10309462686956,0.31441293971546,0.377599204877659,0.849601606535471,0.711410645273418,14.016
0.103422915444348,0.869547721435285,0.00658744398501487,0.743030759812138,0.907961216537081,0.0168130884356998,14.032
0.0918115875928327,0.0977346748382589,0.142869848026291,0.741315534753402,0.132251361585366,0.936959705726679,14.048
0.906537877278895,0.884507347399097,0.769410788493938,0.400238366682041,0.682918039531398,0.578825180952341,14.064
0.282464698171523,0.0743871378041409,0.478775684785679,0.696029748268074,0.763894026988132,0.626678341585561,14.08
0.443622613378373,0.528372287665026,0.146418233016673,0.521523489068044,0.283010371759441,0.115266648071054,14.096
0.394082320480484,0.568112740673505,0.946747879730077,0.712477796752627,0.876621006330235,0.545521594108179,14.112
0.851841619942636,0.0285636699680604,0.218883064045404,0.0999493915171066,0.358199994673543,0.637512890579382,14.128
0.406370563171082,0.985443805076827,0.467355151527384,0.700571673047049,0.0780417251594255,0.297094665803477,14.144
0.232655326491752,0.322346214352694,0.693283484503467,0.578294877444125,0.11583462378546,0.899295556995356,14.16
0.875719635367731,0.244750629130305,0.652615114314591,0.0799626567101495,0.158897226469125,0.929997636053991,14.176
0.151026263447046,0.799703202758729,0.576728950785192,0.169197335171201,0.738412972360078,0.129597245677631,14.192
0.0565660488552999,0.980471021983646,0.408018336079152,0.91756072035238,0.899226026587168,0.420530010994242,14.208
0.603484645076788,0.12381477088688,0.599612730795961,0.234914406701676,0.404030533204921,0.303737155638742,14.224
0.489705954696261,0.805141546034273,0.380998398996281,0.438453893633033,0.16543509597968,0.436015060284546,14.24
0.454825652479794,0.0865227595563121,0.835772365971713,0.831745663729994,0.252136971299846,0.615936097132528,14.256
0.138662287451058,0.85148880787971,0.923074761773243,0.164060493641718,0.0171742197496668,0.259680634220529,14.272
0.0809935598883382,0.374659152818336,0.917401704289119,0.107863836779555,0.537256418053388,0.687501223345754,14.288
0.84660582018986,0.205895098393807,0.834749550201801,0.268187106136588,0.191411700714498,0.280520575688626,14.304
0.431425114497824,0.521404072873709,0.320582911932682,0.64437072988375,0.143344979566656,0.375735399110473,14.32
0.717302030283133,0.937442639995443,0.902792649563889,0.669443050919984,0.106338311430419,0.39109807266732,14.336
0.4643379988282,0.0845668847585193,0.540701632207175,0.806596042552488,0.736256313894936,0.675236317245172,14.352
0.391963373412658,0.727473650705239,0.0655290600768527,0.966368195581191,0.919619191867914,0.601004391484233,14.368
0.330476427545772,0.6471395302266,0.953699386056689,0.0151499953860657,0.950849957415985,0.765972846893979,14.384
0.96407617551607,0.615444777437133,0.239327590040415,0.608011462650794,0.613269359200394,0.0778898122025452,14.4
0.811472234904974,0.958850134534526,0.602069870902938,0.80620351877653,0.405309089111654,0.0288402647319458,14.416
0.658606282868608,0.660248611229465,0.496719266457826,0.948492554425984,0.828422847061214,0.852519918505818,14.432
0.110261762897579,0.765603847166224,0.74664982814455,0.322065324516071,0.205457460680941,0.0786544552184726,14.448
0.0012152242603457,0.632757721756732,0.797590218967816,0.631102292569236,0.265582845635133,0.501330789552647,14.464
0.270252232394097,0.935068177221777,0.577980531091753,0.291532297782863,0.0755873646493401,0.349116478396491,14.48
0.85204756463378,0.65670272063734,0.923923447316875,0.743969910654385,0.0878973937159716,0.203414660373239,14.496
0.314438801713082,0.567328094210584,0.548360492387773,0.213258565382551,0.443858865905183,0.425058179433665,14.512
0.034498844850819,0.21338446919882,0.0904392421806339,0.316875729510918,0.72236413447333,0.0381460300047923,14.528
0.546152538360354,0.796296633822696,0.836595184842158,0.0988511537909504,0.557995046754662,0.438819162947035,14.544
0.541404638012913,0.14089524124577,0.826272845619747,0.0378297623113685,0.143523801646617,0.978034994740652,14.56
0.607348618892417,0.24870736878492,0.539888103948003,0.273039875656676,0.0276255700763454,0.829743564045274,14.576
0.917561483665979,0.289882377007795,0.65675027985678,0.621367294828173,0.931875698609998,0.988368582335179,14.592
0.264711608293338,0.245811058050116,0.170263198268107,0.521470095637324,0.317322256082647,0.29620221276393,14.608
0.232047823004048,0.688544045858008,0.399927485295461,0.467725313376113,0.127462138096017,0.355685528670986,14.624
0.116563713191965,0.0219032103641374,0.26829309053621,0.666982552236553,0.920782134687616,0.839298664172051,14.64
0.650197212960092,0.706099290903501,0.203642932168098,0.262043907957903,0.425576177219388,0.199849937296718,14.656
0.174385096145772,0.130709384734009,0.650861605569818,0.69522982626987,0.215893731441506,0.351924498881369,14.672
0.888715707729974,0.34141943991399,0.711557704874556,0.239273265574035,0.426609772500902,0.726620565340933,14.688
0.121472560679854,0.869554790401136,0.854061854567146,0.873112923296986,0.972970635763336,0.359263997897161,14.704
0.449236081375557,0.85210594256909,0.630329459396361,0.184741089653273,0.676193571097123,0.143838452354438,14.72
0.203004283948298,0.902415519200854,0.0188581119432849,0.0467069361656871,0.477698827010976,0.387966178733262,14.736
0.603827836371921,0.167595081683973,0.991340096953756,0.264606110297433,0.889965640850534,0.226701529025817,14.752
0.994692296277569,0.00388342629413063,0.309740570752169,0.0927525853466633,0.820049928297332,0.340779091759099,14.768
0.983863227728343,0.910604740225421,0.578141420808617,0.576537452651565,0.0680510589059544,0.284043937618111,14.784
0.344082613701115,0.570829652026304,0.353473883305546,0.252768472473592,0.529657394736553,0.332743948314938,14.8
0.664994948233037,0.836404163109331,0.412345820903578,0.590068924698907,0.663639697046292,0.879359114802296,14.816
0.702379423915567,0.267245691451423,0.596105201886392,0.939411877042378,0.345424058668162,0.806465701779184,14.832
0.0497836993344317,0.436650689363907,0.90329768250553,0.210358913787761,0.793690160796206,0.0985937378096811,14.848
0.111093551297318,0.445359968959761,0.625893440831674,0.0966124256476782,0.639295379969002,0.863609896197967,14.864
0.486708983554107,0.129230656622928,0.309664917425353,0.0920046981776275,0.868015656058179,0.581943983481548,14.88
0.548570323929465,0.714720736357389,0.581954797638656,0.568242610825716,0.913163297668426,0.61319884033889,14.896
0.307841064538559,0.357001777847027,0.160102323911094,0.206295541788535,0.894481302569913,0.478721558286683,14.912
0.622634641734162,0.95047181731867,0.184097788426479,0.722743695954131,0.489191279297812,0.676445310800751,14.928
0.114295835846647,0.561250443589064,0.453401057026836,0.000374348873579455,0.201634985141288,0.914781161022016,14.944
0.289959309376274,0.203734405423517,0.695736988270022,0.304417353165923,0.0759983140023591,0.238243201755458,14.96
0.167467235738274,0.308916998694331,0.321079133798201,0.686664831005008,0.211288333616921,0.0519651340634827,14.976
0.318502194975825,0.777739138173333,0.36366672679715,0.560078885865336,0.146152396151333,0.90186796850174,14.992
0.556966316543088,0.745106880128403,0.749783484349189,0.840020084961028,0.232330072680562,0.345369914603397,15.008
0.207322520570429,0.704542941727763,0.582837722069239,0.175135859251085,0.48042112986,0.056929708205783,15.024
0.0369298686934271,0.962807862998839,0.803928368903119,0.313291869742424,0.488954973482047,0.302120463441708,15.04
0.468606990255705,0.642128714473071,0.0568237940319184,0.104876382459061,0.482690179979455,0.349162551866092,15.056
0.253776414438229,0.300928362333556,0.318420370455781,0.226095635179413,0.9200607594816,0.932390174478257,15.072
0.405660338148609,0.346191178108529,0.693596579302893,0.541967980633515,0.214781317108679,0.665032236927324,15.088
0.800526448297434,0.950003099621749,0.699948409382388,0.352138273392794,0.956847137125755,0.0246710854446701,15.104
0.530628021355025,0.283096074825128,0.508838981468413,0.59156150125146,0.563459656939784,0.706569258524433,15.12
0.689152277798273,0.574940564127421,0.457517752134033,0.856584404005961,0.642961881899217,0.145263546201212,15.136
0.584477932901509,0.555735864567718,0.278454933236576,0.248737667686353,0.0923472053762646,0.118904444376994,15.152
0.189143150860458,0.486630094429246,0.558005044893573,0.749414692026377,0.184248299669535,0.00211527898044062,15.168
0.954476124819225,0.509159699443903,0.711204464332109,0.630362649380492,0.984206738615261,0.173027816678023,15.184
0.863118069781877,0.946539001906991,0.816200314181038,0.266192880252131,0.312686404181134,0.163176090603408,15.2
0.534826600984377,0.0407789109184729,0.701253839094271,0.824068131635482,0.897697969033621,0.523398385918953,15.216
0.52234458238406,0.544923749036478,0.176040483643225,0.475014526282863,0.0477074999082555,0.871007516530706,15.232
0.4938584791766,0.606693047852778,0.594450202715733,0.265951343785342,0.588557378226876,0.00529393746971818,15.248
0.856337501439368,0.636839117832192,0.152239750046948,0.217070770975782,0.474703214308324,0.839322928547925,15.264
0.204610004588613,0.220745939898924,0.834323703888511,0.207163502217826,0.558515662732105,0.719115354840381,15.28
0.144820834910652,0.630933438376021,0.914424457394849,0.794289903820972,0.165908733955572,0.795924935341029,15.296
0.727830276833032,0.452858860015004,0.96263329665888,0.975680071439223,0.177161484195162,0.389896271092854,15.312
0.532964447543257,0.34655711817613,0.836093347068018,0.37370678728359,0.507965066784548,0.378488121580265,15.328
0.116138355859393,0.329692288197222,0.539123845229237,0.204592769784954,0.271944640351157,0.0582978273112315,15.344
0.876803227656627,0.376954482253929,0.03604691058652,0.627966510158296,0.272260515651294,0.135324386665955,15.36
0.589057470403737,0.646210022174496,0.150898090492517,0.47594117131701,0.753371231722319,0.296074616237895,15.376
0.71987430927725,0.568691000538011,0.290764638415553,0.506273085343256,0.102603570889842,0.372816061857621,15.392
0.881718480079129,0.975069102922496,0.960866972282775,0.523661746932568,0.248099049824386,0.22597598545753,15.408
0.930296933595044,0.345642551085241,0.785983171185626,0.013153339682325,0.551417892012217,0.441351329718328,15.424
0.978264762235402,0.206623406290895,0.487038633254175,0.0337555966042226,0.526128520618462,0.227632419884667,15.44
0.499419013261418,0.549210935102596,0.946338091395569,0.284030299348825,0.227063660005694,0.325818777717864,15.456
0.0585712937473662,0.383432501134725,0.631062217004616,0.352779086106276,0.887153276809114,0.0197989445787667,15.472
0.84801061268652,0.421186856072058,0.0129275422153839,0.871576929992396,0.724454173427554,0.744089187706054,15.488
0.542600716024563,0.289031708757299,0.933964403426869,0.507169311029219,0.995163125492822,0.470381753485048,15.504
0.21909187706456,0.626842116362645,0.0313068045487168,0.411959933759461,0.487700588987696,0.971599232537836,15.52
0.729833956198038,0.227428107026568,0.407019048398197,0.892553422853586,0.53896313659468,0.164470224783811,15.536
0.457399843342038,0.775517171944666,0.465356268238839,0.704994404222614,0.413573450644393,0.684297178626771,15.552
0.0367946686850624,0.648258850406951,0.710427618031134,0.79423921386284,0.353571535405537,0.384156340272517,15.568
0.655111236108837,0.743967471075735,0.276731203734969,0.572894572280886,0.0935845857888057,0.651475692703762,15.584
0.00619514672885046,0.831072347539387,0.420021859844301,0.0511440923892634,0.056479370280875,0.756588439540579,15.6
0.221468641801952,0.301504976575546,0.961830518270836,0.247026206977687,0.264009994888337,0.0163615625931519,15.616
0.951091564276793,0.26155145570575,0.122110678790746,0.613555357130907,0.284504772280476,0.130681579629556,15.632
0.14065299730735,0.567212532309614,0.605811756204336,0.908568714507608,0.971613780180507,0.581850833803649,15.648
0.229820825588931,0.943786081353854,0.970664033592929,0.141503897704616,0.060486610267539,0.943605214395582,15.664
0.265221218743742,0.205161608591109,0.541664634404681,0.874335900437292,0.267133898689721,0.132581855162021,15.68
0.631916852816676,0.606908210847269,0.152945337983155,0.917505673138169,0.288831856702014,0.732859981598091,15.696
0.181793964425615,0.536450354252398,0.454083057108046,0.0669216199953845,0.0797945417538416,0.604456169425637,15.712
0.705332035397451,0.717692918704962,0.240141402686058,0.0654868611372693,0.171361741020721,0.028693923279405,15.728
0.670537647221228,0.468856415176447,0.490314106042166,0.495427029955629,0.427531927374116,0.0392487038266802,15.744
0.747928104976006,0.375263543034401,0.96901781851824,0.847253111755664,0.471698420027095,0.441081901046485,15.76
0.128171714440276,0.266759412383665,0.586947772338475,0.176109365897413,0.760066017067735,0.664114556931898,15.776
0.558725073519335,0.850000411103751,0.866016599227315,0.252486729210959,0.58221379114208,0.0360545749274584,15.792
0.397423270877809,0.899500769868905,0.0655063566624421,0.0416859510667485,0.878914489215582,0.537777540384077,15.808
0.217876651962259,0.0823457785414445,0.214418096414629,0.265412489231065,0.409227540449456,0.213417760271933,15.824
0.0299102771656047,0.374924080226316,0.987328195726614,0.559473565456745,0.0449653577626612,0.886069152269194,15.84
0.400221740109731,0.173648885964737,0.162927988653285,0.43513112417544,0.245576816181487,0.17876828237835,15.856
0.128771055075803,0.359035855278379,0.258212977241124,0.439850352064681,0.645809548278516,0.297738876479392,15.872
0.626982834446248,0.494880069490146,0.268841537006465,0.577248916850923,0.787556691930643,0.314211522153299,15.888
0.919683530298166,0.808614847539757,0.0999882385557779,0.878322125436315,0.524545485461331,0.568682427509355,15.904
0.929627008059992,0.452956371116978,0.581353091978793,0.150736527747671,0.472738513669331,0.825789135477388,15.92
0.235901435766176,0.922941491177582,0.113171274199975,0.357287243687333,0.803859056158306,0.529046934816911,15.936
0.418713866502458,0.697713622961359,0.946685563350411,0.450699943813185,0.208463390364027,0.635375483900713,15.952
0.906076862638211,0.970493821830775,0.390457153508182,0.522562753142536,0.0286986997517619,0.543497805848784,15.968
0.964943948891902,0.125403027887903,0.189682798384096,0.476593989767111,0.810497794734804,0.538282936397391,15.984
0.0880306598306364,0.0238423064966821,0.960775938928269,0.337035306855976,0.703546373452593,0.921171181327983,16
0.845177975948993,0.443607840007715,0.0801880440065437,0.547263920557336,0.309772951947298,0.146338770659052,16.016
0.0674125892142353,0.160215608179061,0.272105376645621,0.130622893404292,0.808583219480901,0.963038770839354,16.032
0.355005299847179,0.0107251626866467,0.22618843861888,0.421003659450251,0.470113823613004,0.300476444372263,16.048
0.712247253231185,0.880358102929601,0.405421564158013,0.772551565005936,0.363233465168815,0.110275481859887,16.064
0.0940497486551649,0.438413950703111,0.859101308247563,0.279690906356445,0.414594347299259,0.436794622653146,16.08
0.128614859958084,0.607175693680275,0.131995195292287,0.30503118705902,0.474111242647669,0.929887227618459,16.096
0.754925927363003,0.498870893766164,0.960159961282968,0.753112831437464,0.874140592786731,0.546077787244349,16.112
0.901113369976322,0.0838009948783721,0.992204952324512,0.754584449611518,0.634655390640475,0.338500652083385,16.128
0.726605247463136,0.211030105179753,0.604182583855548,0.327439545723517,0.916521543000333,0.467405768815061,16.144
0.949450235983632,0.575533950331266,0.901763793771162,0.568328361752395,0.523103820950682,0.0106828562336579,16.16
0.97174891938581,0.414631754248695,0.243973607811119,0.12696742657323,0.152144835654964,0.43193690395538,16.176
0.1559436478444,0.393227532785406,0.927275402679829,0.193313343332718,0.0053178743657053,0.649149953352643,16.192
0.508691865599408,0.897341420399129,0.723309719874216,0.860026608930263,0.363926749905699,0.195455681960732,16.208
0.968553697257235,0.317995413601263,0.294736110755912,0.937897260263724,0.346689679534524,0.501070624462928,16.224
0.0473977511506564,0.815982037844271,0.982592012394159,0.0960755453257185,0.333785969253449,0.257790111587597,16.24
0.463076846531938,0.560647955439438,0.220857031309508,0.650316747555552,0.316010155675732,0.775383742762991,16.256
0.329281625887056,0.278877657827903,0.530990218559967,0.0252860352176366,0.50858779995234,0.279425319417266,16.272
0.861955595875465,0.871450448611428,0.333882619646631,0.333164919809282,0.755342580551841,0.699928615250321,16.288
0.534275235696783,0.0863584801525467,0.987560777104849,0.760796328875605,0.592996469378754,0.712490261250762,16.304
0.543340804797214,0.427624538175272,0.531766645885865,0.628046360210763,0.630514107325677,0.0704184095122319,16.32
0.00651289850485492,0.960070118305717,0.798002183927218,0.0556618640749764,0.824912306696657,0.491700180924581,16.336
0.231201946629394,0.749021683493996,0.837813133637877,0.0144802774663406,0.166064339914541,0.365578035466701,16.352
0.397989711846617,0.856563362085878,0.332410271206987,0.504203559945149,0.15153138176397,0.521185899518558,16.368
0.630924662952595,0.0130573406936659,0.624721399701704,0.613527355758124,0.220615216047604,0.878821582853133,16.384
0.477648302144434,0.472892676549737,0.0566337147758662,0.428354921521899,0.540946620454508,0.308357100825147,16.4
0.808969986129699,0.882470804756447,0.480926103722143,0.862657922103054,0.983535064468546,0.572227087340591,16.416
0.865512670397446,0.877132534947542,0.706818679710641,0.893348113952456,0.315714348760477,0.397587908917346,16.432
0.180675045092461,0.208553572229071,0.0911451158951595,0.0693147123057978,0.843784354800467,0.76200203329081,16.448
0.276127312751139,0.95917356099171,0.823951818677508,0.767009395914255,0.548022542817558,0.737700300645179,16.464
0.194731679708059,0.626105632463308,0.801735699846366,0.583161510862162,0.648470568044454,0.480015889617817,16.48
0.57860430948412,0.813150661033053,0.220264034080578,0.881595862549751,0.0627578533968374,0.705421946806126,16.496
0.216123717166107,0.179497791635751,0.386422274771004,0.547526475356794,0.215771846615702,0.585579753835174,16.512
0.741439274748533,0.9643789407176,0.171394546997657,0.554485061606028,0.22866637288877,0.765138793330873,16.528
0.929106901851083,0.819847610978191,0.403215594892807,0.135239819850105,0.125763161842282,0.970964714962639,16.544
0.460864497307115,0.21386419878239,0.83160619122303,0.888552352395612,0.0130238809234854,0.261596828706613,16.56
0.878042031597472,0.85630628906241,0.853267937234454,0.478765023208064,0.191926952091927,0.127934087904758,16.576
0.742891847229218,0.421874477627057,0.848417427928569,0.0181774696235998,0.303655938497867,0.293886505166747,16.592
0.0197056015547796,0.926531968565279,0.461850648757814,0.191639803236304,0.91773018743161,0.853072867029748,16.608
0.571530112441683,0.57958260307537,0.024956934889068,0.733971228541766,0.631297915046715,0.341676105047824,16.624
0.811627106472652,0.29536983867143,0.338291508979955,0.0608994453152628,0.343618167584822,0.795912584360769,16.64
